verbs,questionnarie,trials.thisRepN,trials.thisTrialN,trials.thisN,trials.thisIndex,rating.response,rating.rt,participant,session,date,expName,frameRate,
与える,消極的な-積極的な,0,0,0,1140,3,5.661,,001,2018_Dec_03_1513,verb_impression,60.01149845832779,
出る,沈んだ-うきうきした,0,1,1,871,2,3.702,,001,2018_Dec_03_1513,verb_impression,60.01149845832779,
発表する,非社交的な-社交的な,0,2,2,1086,3,6.343,,001,2018_Dec_03_1513,verb_impression,60.01149845832779,
任す,卑屈な-堂々とした,0,3,3,1192,3,3.831,,001,2018_Dec_03_1513,verb_impression,60.01149845832779,
話しかける,不親切な-親切な,0,4,4,499,1,7.796,,001,2018_Dec_03_1513,verb_impression,60.01149845832779,
進む,非社交的な-社交的な,0,5,5,726,2,6.835,,001,2018_Dec_03_1513,verb_impression,60.01149845832779,
送る,近づきがたい-人懐っこい,0,6,6,283,2,3.497,,001,2018_Dec_03_1513,verb_impression,60.01149845832779,
教える,消極的な-積極的な,0,7,7,320,2,5.191,,001,2018_Dec_03_1513,verb_impression,60.01149845832779,
助ける,責任感のない-責任感のある,0,8,8,467,3,4.614,,001,2018_Dec_03_1513,verb_impression,60.01149845832779,
許す,無分別な-分別のある,0,9,9,274,2,3.354,,001,2018_Dec_03_1513,verb_impression,60.01149845832779,
評価する,沈んだ-うきうきした,0,10,10,551,0,5.671,,001,2018_Dec_03_1513,verb_impression,60.01149845832779,
困る,自信のない-自信のある,0,11,11,417,-3,4.854,,001,2018_Dec_03_1513,verb_impression,60.01149845832779,
発表する,憎らしい-可愛らしい,0,12,12,1084,1,5.551,,001,2018_Dec_03_1513,verb_impression,60.01149845832779,
心配する,無気力な-意欲的な,0,13,13,156,0,10.948,,001,2018_Dec_03_1513,verb_impression,60.01149845832779,
交流する,生意気な-生意気でない,0,14,14,642,2,10.734,,001,2018_Dec_03_1513,verb_impression,60.01149845832779,
助ける,消極的な-積極的な,0,15,15,460,3,6.495,,001,2018_Dec_03_1513,verb_impression,60.01149845832779,
行う,心の狭い-心の広い,0,16,16,665,1,4.334,,001,2018_Dec_03_1513,verb_impression,60.01149845832779,
落ち込む,軽薄な-重厚な,0,17,17,1010,2,8.178,,001,2018_Dec_03_1513,verb_impression,60.01149845832779,
仕事する,自信のない-自信のある,0,18,18,797,3,3.251,,001,2018_Dec_03_1513,verb_impression,60.01149845832779,
休む,近づきがたい-人懐っこい,0,19,19,963,0,6.423,,001,2018_Dec_03_1513,verb_impression,60.01149845832779,
計画する,沈んだ-うきうきした,0,20,20,931,2,3.406,,001,2018_Dec_03_1513,verb_impression,60.01149845832779,
取り組む,軽率な-慎重な,0,21,21,708,1,29.03,,001,2018_Dec_03_1513,verb_impression,60.01149845832779,
任す,近づきがたい-人懐っこい,0,22,22,1183,2,6.626,,001,2018_Dec_03_1513,verb_impression,60.01149845832779,
参加する,非社交的な-社交的な,0,23,23,946,3,4.151,,001,2018_Dec_03_1513,verb_impression,60.01149845832779,
立候補する,恥知らずの-恥ずかしがりの,0,24,24,1069,-2,6.03,,001,2018_Dec_03_1513,verb_impression,60.01149845832779,
確認する,無気力な-意欲的な,0,25,25,1176,2,8.362,,001,2018_Dec_03_1513,verb_impression,60.01149845832779,
行う,無気力な-意欲的な,0,26,26,676,3,3.731,,001,2018_Dec_03_1513,verb_impression,60.01149845832779,
歌う,親しみにくい-親しみやすい,0,27,27,1135,3,4.992,,001,2018_Dec_03_1513,verb_impression,60.01149845832779,
楽しむ,軽率な-慎重な,0,28,28,768,-1,5.007,,001,2018_Dec_03_1513,verb_impression,60.01149845832779,
立候補する,軽率な-慎重な,0,29,29,1068,1,4.524,,001,2018_Dec_03_1513,verb_impression,60.01149845832779,
入る,責任感のない-責任感のある,0,30,30,687,0,6.172,,001,2018_Dec_03_1513,verb_impression,60.01149845832779,
行く,軽率な-慎重な,0,31,31,508,0,17.842,,001,2018_Dec_03_1513,verb_impression,60.01149845832779,
交流する,責任感のない-責任感のある,0,32,32,647,1,4.165,,001,2018_Dec_03_1513,verb_impression,60.01149845832779,
沈む,無気力な-意欲的な,0,33,33,1116,-3,8.939,,001,2018_Dec_03_1513,verb_impression,60.01149845832779,
立候補する,責任感のない-責任感のある,0,34,34,1067,3,3.567,,001,2018_Dec_03_1513,verb_impression,60.01149845832779,
貸す,沈んだ-うきうきした,0,35,35,171,0,3.073,,001,2018_Dec_03_1513,verb_impression,60.01149845832779,
接する,感じの悪い-感じの良い,0,36,36,53,3,8.883,,001,2018_Dec_03_1513,verb_impression,60.01149845832779,
出る,責任感のない-責任感のある,0,37,37,867,3,12.987,,001,2018_Dec_03_1513,verb_impression,60.01149845832779,
心配する,卑屈な-堂々とした,0,38,38,152,0,5.543,,001,2018_Dec_03_1513,verb_impression,60.01149845832779,
評価する,憎らしい-可愛らしい,0,39,39,544,0,5.803,,001,2018_Dec_03_1513,verb_impression,60.01149845832779,
楽しむ,消極的な-積極的な,0,40,40,760,3,18.926,,001,2018_Dec_03_1513,verb_impression,60.01149845832779,
目立つ,沈んだ-うきうきした,0,41,41,911,3,3.563,,001,2018_Dec_03_1513,verb_impression,60.01149845832779,
連絡する,心の狭い-心の広い,0,42,42,5,2,13.88,,001,2018_Dec_03_1513,verb_impression,60.01149845832779,
言う,心の狭い-心の広い,0,43,43,445,0,5.409,,001,2018_Dec_03_1513,verb_impression,60.01149845832779,
落ち込む,人のわるい-人の良い,0,44,44,1001,0,6.015,,001,2018_Dec_03_1513,verb_impression,60.01149845832779,
発言する,軽率な-慎重な,0,45,45,568,0,3.891,,001,2018_Dec_03_1513,verb_impression,60.01149845832779,
受け入れる,自信のない-自信のある,0,46,46,257,3,3.531,,001,2018_Dec_03_1513,verb_impression,60.01149845832779,
飲む,無分別な-分別のある,0,47,47,594,0,24.837,,001,2018_Dec_03_1513,verb_impression,60.01149845832779,
卑下する,生意気な-生意気でない,0,48,48,982,1,8.251,,001,2018_Dec_03_1513,verb_impression,60.01149845832779,
親しむ,生意気な-生意気でない,0,49,49,382,2,4.517,,001,2018_Dec_03_1513,verb_impression,60.01149845832779,
入る,短気な-気長な,0,50,50,698,0,3.557,,001,2018_Dec_03_1513,verb_impression,60.01149845832779,
計画する,憎らしい-可愛らしい,0,51,51,924,0,11.841,,001,2018_Dec_03_1513,verb_impression,60.01149845832779,
与える,生意気な-生意気でない,0,52,52,1142,2,9.382,,001,2018_Dec_03_1513,verb_impression,60.01149845832779,
活動する,責任感のない-責任感のある,0,53,53,827,1,5.387,,001,2018_Dec_03_1513,verb_impression,60.01149845832779,
取り組む,自信のない-自信のある,0,54,54,717,3,9.926,,001,2018_Dec_03_1513,verb_impression,60.01149845832779,
立候補する,非社交的な-社交的な,0,55,55,1066,3,5.476,,001,2018_Dec_03_1513,verb_impression,60.01149845832779,
見下す,短気な-気長な,0,56,56,438,-2,3.46,,001,2018_Dec_03_1513,verb_impression,60.01149845832779,
考える,感じの悪い-感じの良い,0,57,57,633,2,2.919,,001,2018_Dec_03_1513,verb_impression,60.01149845832779,
務める,軽率な-慎重な,0,58,58,1048,3,6.041,,001,2018_Dec_03_1513,verb_impression,60.01149845832779,
任す,人のわるい-人の良い,0,59,59,1181,2,3.561,,001,2018_Dec_03_1513,verb_impression,60.01149845832779,
助ける,短気な-気長な,0,60,60,478,2,3.624,,001,2018_Dec_03_1513,verb_impression,60.01149845832779,
気に入る,親しみにくい-親しみやすい,0,61,61,35,3,7.493,,001,2018_Dec_03_1513,verb_impression,60.01149845832779,
助ける,不親切な-親切な,0,62,62,479,3,29.474,,001,2018_Dec_03_1513,verb_impression,60.01149845832779,
取り組む,無分別な-分別のある,0,63,63,714,2,3.126,,001,2018_Dec_03_1513,verb_impression,60.01149845832779,
合う,親しみにくい-親しみやすい,0,64,64,235,3,2.956,,001,2018_Dec_03_1513,verb_impression,60.01149845832779,
飲む,軽薄な-重厚な,0,65,65,590,-1,3.197,,001,2018_Dec_03_1513,verb_impression,60.01149845832779,
困る,親しみにくい-親しみやすい,0,66,66,415,-1,27.392,,001,2018_Dec_03_1513,verb_impression,60.01149845832779,
楽しむ,無分別な-分別のある,0,67,67,774,0,4.254,,001,2018_Dec_03_1513,verb_impression,60.01149845832779,
接する,無気力な-意欲的な,0,68,68,56,3,3.876,,001,2018_Dec_03_1513,verb_impression,60.01149845832779,
相談する,感じの悪い-感じの良い,0,69,69,193,2,4.276,,001,2018_Dec_03_1513,verb_impression,60.01149845832779,
目立つ,生意気な-生意気でない,0,70,70,902,-2,3.157,,001,2018_Dec_03_1513,verb_impression,60.01149845832779,
歌う,非社交的な-社交的な,0,71,71,1126,3,2.947,,001,2018_Dec_03_1513,verb_impression,60.01149845832779,
落ち込む,近づきがたい-人懐っこい,0,72,72,1003,-1,3.34,,001,2018_Dec_03_1513,verb_impression,60.01149845832779,
任す,自信のない-自信のある,0,73,73,1197,2,6.753,,001,2018_Dec_03_1513,verb_impression,60.01149845832779,
務める,沈んだ-うきうきした,0,74,74,1051,0,4.338,,001,2018_Dec_03_1513,verb_impression,60.01149845832779,
買う,沈んだ-うきうきした,0,75,75,811,2,3.665,,001,2018_Dec_03_1513,verb_impression,60.01149845832779,
引き受ける,軽薄な-重厚な,0,76,76,210,2,4.161,,001,2018_Dec_03_1513,verb_impression,60.01149845832779,
目立つ,親しみにくい-親しみやすい,0,77,77,915,2,3.055,,001,2018_Dec_03_1513,verb_impression,60.01149845832779,
話す,生意気な-生意気でない,0,78,78,342,2,5.429,,001,2018_Dec_03_1513,verb_impression,60.01149845832779,
引き受ける,自信のない-自信のある,0,79,79,217,3,3.855,,001,2018_Dec_03_1513,verb_impression,60.01149845832779,
入る,無分別な-分別のある,0,80,80,694,0,3.558,,001,2018_Dec_03_1513,verb_impression,60.01149845832779,
頼む,感じの悪い-感じの良い,0,81,81,133,3,4.139,,001,2018_Dec_03_1513,verb_impression,60.01149845832779,
助ける,自信のない-自信のある,0,82,82,477,3,11.31,,001,2018_Dec_03_1513,verb_impression,60.01149845832779,
参加する,自信のない-自信のある,0,83,83,957,3,3.036,,001,2018_Dec_03_1513,verb_impression,60.01149845832779,
決める,人のわるい-人の良い,0,84,84,841,2,5.487,,001,2018_Dec_03_1513,verb_impression,60.01149845832779,
務める,生意気な-生意気でない,0,85,85,1042,0,3.992,,001,2018_Dec_03_1513,verb_impression,60.01149845832779,
助ける,心の狭い-心の広い,0,86,86,465,3,6.088,,001,2018_Dec_03_1513,verb_impression,60.01149845832779,
近づく,心の狭い-心の広い,0,87,87,1025,2,3.449,,001,2018_Dec_03_1513,verb_impression,60.01149845832779,
話す,無気力な-意欲的な,0,88,88,356,3,11.885,,001,2018_Dec_03_1513,verb_impression,60.01149845832779,
評価する,消極的な-積極的な,0,89,89,540,3,3.434,,001,2018_Dec_03_1513,verb_impression,60.01149845832779,
受け入れる,恥知らずの-恥ずかしがりの,0,90,90,249,0,4.443,,001,2018_Dec_03_1513,verb_impression,60.01149845832779,
飲む,無気力な-意欲的な,0,91,91,596,2,3.284,,001,2018_Dec_03_1513,verb_impression,60.01149845832779,
感じる,軽薄な-重厚な,0,92,92,310,0,4.286,,001,2018_Dec_03_1513,verb_impression,60.01149845832779,
言う,非社交的な-社交的な,0,93,93,446,2,3.031,,001,2018_Dec_03_1513,verb_impression,60.01149845832779,
仕事する,心の狭い-心の広い,0,94,94,785,0,2.694,,001,2018_Dec_03_1513,verb_impression,60.01149845832779,
目立つ,軽薄な-重厚な,0,95,95,910,-2,2.865,,001,2018_Dec_03_1513,verb_impression,60.01149845832779,
活動する,沈んだ-うきうきした,0,96,96,831,3,3.633,,001,2018_Dec_03_1513,verb_impression,60.01149845832779,
近づく,憎らしい-可愛らしい,0,97,97,1024,3,4.415,,001,2018_Dec_03_1513,verb_impression,60.01149845832779,
貸す,近づきがたい-人懐っこい,0,98,98,163,2,3.816,,001,2018_Dec_03_1513,verb_impression,60.01149845832779,
教える,親しみにくい-親しみやすい,0,99,99,335,3,2.85,,001,2018_Dec_03_1513,verb_impression,60.01149845832779,
休む,恥知らずの-恥ずかしがりの,0,100,100,969,0,4.153,,001,2018_Dec_03_1513,verb_impression,60.01149845832779,
困る,無気力な-意欲的な,0,101,101,416,-1,6.227,,001,2018_Dec_03_1513,verb_impression,60.01149845832779,
目立つ,短気な-気長な,0,102,102,918,-1,3.543,,001,2018_Dec_03_1513,verb_impression,60.01149845832779,
務める,責任感のない-責任感のある,0,103,103,1047,3,3.506,,001,2018_Dec_03_1513,verb_impression,60.01149845832779,
楽しむ,軽薄な-重厚な,0,104,104,770,-2,4.299,,001,2018_Dec_03_1513,verb_impression,60.01149845832779,
行動する,軽率な-慎重な,0,105,105,608,-1,4.301,,001,2018_Dec_03_1513,verb_impression,60.01149845832779,
見下す,生意気な-生意気でない,0,106,106,422,-3,2.857,,001,2018_Dec_03_1513,verb_impression,60.01149845832779,
接する,消極的な-積極的な,0,107,107,40,3,5.53,,001,2018_Dec_03_1513,verb_impression,60.01149845832779,
対応する,憎らしい-可愛らしい,0,108,108,64,2,3.804,,001,2018_Dec_03_1513,verb_impression,60.01149845832779,
合う,自信のない-自信のある,0,109,109,237,0,5.942,,001,2018_Dec_03_1513,verb_impression,60.01149845832779,
話しかける,恥知らずの-恥ずかしがりの,0,110,110,489,-1,5.84,,001,2018_Dec_03_1513,verb_impression,60.01149845832779,
進む,人のわるい-人の良い,0,111,111,721,2,2.39,,001,2018_Dec_03_1513,verb_impression,60.01149845832779,
参加する,無分別な-分別のある,0,112,112,954,1,2.951,,001,2018_Dec_03_1513,verb_impression,60.01149845832779,
目立つ,近づきがたい-人懐っこい,0,113,113,903,2,8.14,,001,2018_Dec_03_1513,verb_impression,60.01149845832779,
怒る,恥知らずの-恥ずかしがりの,0,114,114,369,-1,6.064,,001,2018_Dec_03_1513,verb_impression,60.01149845832779,
評価する,軽薄な-重厚な,0,115,115,550,2,3.577,,001,2018_Dec_03_1513,verb_impression,60.01149845832779,
相談する,自信のない-自信のある,0,116,116,197,-1,11.005,,001,2018_Dec_03_1513,verb_impression,60.01149845832779,
困る,非社交的な-社交的な,0,117,117,406,0,5.743,,001,2018_Dec_03_1513,verb_impression,60.01149845832779,
沈む,消極的な-積極的な,0,118,118,1100,-2,4.988,,001,2018_Dec_03_1513,verb_impression,60.01149845832779,
近づく,不親切な-親切な,0,119,119,1039,2,2.993,,001,2018_Dec_03_1513,verb_impression,60.01149845832779,
買う,自信のない-自信のある,0,120,120,817,2,2.427,,001,2018_Dec_03_1513,verb_impression,60.01149845832779,
話しかける,憎らしい-可愛らしい,0,121,121,484,2,2.658,,001,2018_Dec_03_1513,verb_impression,60.01149845832779,
飲む,感じの悪い-感じの良い,0,122,122,593,0,4.354,,001,2018_Dec_03_1513,verb_impression,60.01149845832779,
困る,人のわるい-人の良い,0,123,123,401,1,3.589,,001,2018_Dec_03_1513,verb_impression,60.01149845832779,
沈む,非社交的な-社交的な,0,124,124,1106,-1,2.226,,001,2018_Dec_03_1513,verb_impression,60.01149845832779,
対応する,近づきがたい-人懐っこい,0,125,125,63,2,2.504,,001,2018_Dec_03_1513,verb_impression,60.01149845832779,
与える,心の狭い-心の広い,0,126,126,1145,3,4.125,,001,2018_Dec_03_1513,verb_impression,60.01149845832779,
親しむ,自信のない-自信のある,0,127,127,397,3,4.664,,001,2018_Dec_03_1513,verb_impression,60.01149845832779,
断る,責任感のない-責任感のある,0,128,128,87,-2,5.809,,001,2018_Dec_03_1513,verb_impression,60.01149845832779,
休む,心の狭い-心の広い,0,129,129,965,0,2.273,,001,2018_Dec_03_1513,verb_impression,60.01149845832779,
仕事する,軽薄な-重厚な,0,130,130,790,2,2.643,,001,2018_Dec_03_1513,verb_impression,60.01149845832779,
助ける,沈んだ-うきうきした,0,131,131,471,0,4.134,,001,2018_Dec_03_1513,verb_impression,60.01149845832779,
与える,自信のない-自信のある,0,132,132,1157,3,3.217,,001,2018_Dec_03_1513,verb_impression,60.01149845832779,
引き受ける,無気力な-意欲的な,0,133,133,216,3,2.887,,001,2018_Dec_03_1513,verb_impression,60.01149845832779,
発表する,心の狭い-心の広い,0,134,134,1085,1,4.093,,001,2018_Dec_03_1513,verb_impression,60.01149845832779,
困る,近づきがたい-人懐っこい,0,135,135,403,-1,3.227,,001,2018_Dec_03_1513,verb_impression,60.01149845832779,
発言する,無気力な-意欲的な,0,136,136,576,3,2.825,,001,2018_Dec_03_1513,verb_impression,60.01149845832779,
断る,軽薄な-重厚な,0,137,137,90,1,4.543,,001,2018_Dec_03_1513,verb_impression,60.01149845832779,
対応する,短気な-気長な,0,138,138,78,-1,3.239,,001,2018_Dec_03_1513,verb_impression,60.01149845832779,
近寄る,消極的な-積極的な,0,139,139,880,3,2.944,,001,2018_Dec_03_1513,verb_impression,60.01149845832779,
参加する,不親切な-親切な,0,140,140,959,1,2.957,,001,2018_Dec_03_1513,verb_impression,60.01149845832779,
対応する,無分別な-分別のある,0,141,141,74,2,2.866,,001,2018_Dec_03_1513,verb_impression,60.01149845832779,
聞く,責任感のない-責任感のある,0,142,142,107,3,2.888,,001,2018_Dec_03_1513,verb_impression,60.01149845832779,
困る,憎らしい-可愛らしい,0,143,143,404,1,3.926,,001,2018_Dec_03_1513,verb_impression,60.01149845832779,
言う,憎らしい-可愛らしい,0,144,144,444,1,6.467,,001,2018_Dec_03_1513,verb_impression,60.01149845832779,
評価する,近づきがたい-人懐っこい,0,145,145,543,-1,3.092,,001,2018_Dec_03_1513,verb_impression,60.01149845832779,
気に入る,生意気な-生意気でない,0,146,146,22,1,4.657,,001,2018_Dec_03_1513,verb_impression,60.01149845832779,
話す,短気な-気長な,0,147,147,358,0,4.642,,001,2018_Dec_03_1513,verb_impression,60.01149845832779,
楽しむ,人のわるい-人の良い,0,148,148,761,2,4.689,,001,2018_Dec_03_1513,verb_impression,60.01149845832779,
助ける,生意気な-生意気でない,0,149,149,462,2,3.247,,001,2018_Dec_03_1513,verb_impression,60.01149845832779,
親しむ,近づきがたい-人懐っこい,0,150,150,383,2,15.366,,001,2018_Dec_03_1513,verb_impression,60.01149845832779,
仕事する,憎らしい-可愛らしい,0,151,151,784,0,2.577,,001,2018_Dec_03_1513,verb_impression,60.01149845832779,
許す,生意気な-生意気でない,0,152,152,262,1,3.042,,001,2018_Dec_03_1513,verb_impression,60.01149845832779,
受け入れる,心の狭い-心の広い,0,153,153,245,3,2.822,,001,2018_Dec_03_1513,verb_impression,60.01149845832779,
取り組む,沈んだ-うきうきした,0,154,154,711,2,9.011,,001,2018_Dec_03_1513,verb_impression,60.01149845832779,
行動する,不親切な-親切な,0,155,155,619,1,34.475,,001,2018_Dec_03_1513,verb_impression,60.01149845832779,
休む,卑屈な-堂々とした,0,156,156,972,0,2.914,,001,2018_Dec_03_1513,verb_impression,60.01149845832779,
休む,軽薄な-重厚な,0,157,157,970,0,2.844,,001,2018_Dec_03_1513,verb_impression,60.01149845832779,
頼む,無気力な-意欲的な,0,158,158,136,-1,3.189,,001,2018_Dec_03_1513,verb_impression,60.01149845832779,
参加する,恥知らずの-恥ずかしがりの,0,159,159,949,0,5.539,,001,2018_Dec_03_1513,verb_impression,60.01149845832779,
困る,責任感のない-責任感のある,0,160,160,407,1,3.941,,001,2018_Dec_03_1513,verb_impression,60.01149845832779,
困る,卑屈な-堂々とした,0,161,161,412,-1,2.463,,001,2018_Dec_03_1513,verb_impression,60.01149845832779,
貸す,人のわるい-人の良い,0,162,162,161,3,5.416,,001,2018_Dec_03_1513,verb_impression,60.01149845832779,
言う,軽率な-慎重な,0,163,163,448,0,2.875,,001,2018_Dec_03_1513,verb_impression,60.01149845832779,
心配する,沈んだ-うきうきした,0,164,164,151,-2,3.043,,001,2018_Dec_03_1513,verb_impression,60.01149845832779,
確認する,短気な-気長な,0,165,165,1178,1,3.559,,001,2018_Dec_03_1513,verb_impression,60.01149845832779,
休む,憎らしい-可愛らしい,0,166,166,964,1,2.814,,001,2018_Dec_03_1513,verb_impression,60.01149845832779,
落ち込む,短気な-気長な,0,167,167,1018,-1,3.776,,001,2018_Dec_03_1513,verb_impression,60.01149845832779,
相談する,消極的な-積極的な,0,168,168,180,1,3.594,,001,2018_Dec_03_1513,verb_impression,60.01149845832779,
引き受ける,恥知らずの-恥ずかしがりの,0,169,169,209,0,3.186,,001,2018_Dec_03_1513,verb_impression,60.01149845832779,
沈む,自信のない-自信のある,0,170,170,1117,-1,6.224,,001,2018_Dec_03_1513,verb_impression,60.01149845832779,
計画する,感じの悪い-感じの良い,0,171,171,933,0,3.593,,001,2018_Dec_03_1513,verb_impression,60.01149845832779,
相談する,近づきがたい-人懐っこい,0,172,172,183,2,7.156,,001,2018_Dec_03_1513,verb_impression,60.01149845832779,
怒る,短気な-気長な,0,173,173,378,-3,3.113,,001,2018_Dec_03_1513,verb_impression,60.01149845832779,
接する,卑屈な-堂々とした,0,174,174,52,1,3.267,,001,2018_Dec_03_1513,verb_impression,60.01149845832779,
助ける,非社交的な-社交的な,0,175,175,466,2,3.057,,001,2018_Dec_03_1513,verb_impression,60.01149845832779,
聞く,非社交的な-社交的な,0,176,176,106,3,2.837,,001,2018_Dec_03_1513,verb_impression,60.01149845832779,
取り組む,卑屈な-堂々とした,0,177,177,712,2,2.778,,001,2018_Dec_03_1513,verb_impression,60.01149845832779,
仕事する,消極的な-積極的な,0,178,178,780,2,2.594,,001,2018_Dec_03_1513,verb_impression,60.01149845832779,
旅行する,人のわるい-人の良い,0,179,179,741,0,2.781,,001,2018_Dec_03_1513,verb_impression,60.01149845832779,
旅行する,生意気な-生意気でない,0,180,180,742,0,3.308,,001,2018_Dec_03_1513,verb_impression,60.01149845832779,
入る,近づきがたい-人懐っこい,0,181,181,683,1,3.294,,001,2018_Dec_03_1513,verb_impression,60.01149845832779,
仕事する,無気力な-意欲的な,0,182,182,796,3,2.829,,001,2018_Dec_03_1513,verb_impression,60.01149845832779,
行動する,卑屈な-堂々とした,0,183,183,612,3,2.542,,001,2018_Dec_03_1513,verb_impression,60.01149845832779,
聞く,沈んだ-うきうきした,0,184,184,111,1,4.875,,001,2018_Dec_03_1513,verb_impression,60.01149845832779,
行う,軽率な-慎重な,0,185,185,668,0,4.345,,001,2018_Dec_03_1513,verb_impression,60.01149845832779,
怒る,憎らしい-可愛らしい,0,186,186,364,-1,4.258,,001,2018_Dec_03_1513,verb_impression,60.01149845832779,
感じる,恥知らずの-恥ずかしがりの,0,187,187,309,0,4.969,,001,2018_Dec_03_1513,verb_impression,60.01149845832779,
立候補する,人のわるい-人の良い,0,188,188,1061,0,4.654,,001,2018_Dec_03_1513,verb_impression,60.01149845832779,
教える,卑屈な-堂々とした,0,189,189,332,1,2.428,,001,2018_Dec_03_1513,verb_impression,60.01149845832779,
目立つ,責任感のない-責任感のある,0,190,190,907,1,4.155,,001,2018_Dec_03_1513,verb_impression,60.01149845832779,
送る,無気力な-意欲的な,0,191,191,296,1,2.526,,001,2018_Dec_03_1513,verb_impression,60.01149845832779,
言う,生意気な-生意気でない,0,192,192,442,0,5.078,,001,2018_Dec_03_1513,verb_impression,60.01149845832779,
対応する,親しみにくい-親しみやすい,0,193,193,75,2,4.771,,001,2018_Dec_03_1513,verb_impression,60.01149845832779,
買う,人のわるい-人の良い,0,194,194,801,0,2.803,,001,2018_Dec_03_1513,verb_impression,60.01149845832779,
考える,近づきがたい-人懐っこい,0,195,195,623,-1,4.408,,001,2018_Dec_03_1513,verb_impression,60.01149845832779,
卑下する,沈んだ-うきうきした,0,196,196,991,-2,3.293,,001,2018_Dec_03_1513,verb_impression,60.01149845832779,
沈む,人のわるい-人の良い,0,197,197,1101,0,2.99,,001,2018_Dec_03_1513,verb_impression,60.01149845832779,
近寄る,近づきがたい-人懐っこい,0,198,198,883,3,5.0,,001,2018_Dec_03_1513,verb_impression,60.01149845832779,
目立つ,自信のない-自信のある,0,199,199,917,3,2.984,,001,2018_Dec_03_1513,verb_impression,60.01149845832779,
対応する,生意気な-生意気でない,0,200,200,62,1,7.438,,001,2018_Dec_03_1513,verb_impression,60.01149845832779,
連絡する,短気な-気長な,0,201,201,18,0,4.59,,001,2018_Dec_03_1513,verb_impression,60.01149845832779,
合う,心の狭い-心の広い,0,202,202,225,2,22.559,,001,2018_Dec_03_1513,verb_impression,60.01149845832779,
近寄る,卑屈な-堂々とした,0,203,203,892,0,3.459,,001,2018_Dec_03_1513,verb_impression,60.01149845832779,
連絡する,消極的な-積極的な,0,204,204,0,2,2.792,,001,2018_Dec_03_1513,verb_impression,60.01149845832779,
相談する,人のわるい-人の良い,0,205,205,181,2,2.807,,001,2018_Dec_03_1513,verb_impression,60.01149845832779,
言う,人のわるい-人の良い,0,206,206,441,0,2.284,,001,2018_Dec_03_1513,verb_impression,60.01149845832779,
許す,消極的な-積極的な,0,207,207,260,1,3.238,,001,2018_Dec_03_1513,verb_impression,60.01149845832779,
持つ,心の狭い-心の広い,0,208,208,525,0,10.206,,001,2018_Dec_03_1513,verb_impression,60.01149845832779,
立候補する,近づきがたい-人懐っこい,0,209,209,1063,0,4.007,,001,2018_Dec_03_1513,verb_impression,60.01149845832779,
連絡する,軽率な-慎重な,0,210,210,8,1,2.792,,001,2018_Dec_03_1513,verb_impression,60.01149845832779,
評価する,非社交的な-社交的な,0,211,211,546,0,3.875,,001,2018_Dec_03_1513,verb_impression,60.01149845832779,
教える,憎らしい-可愛らしい,0,212,212,324,0,19.738,,001,2018_Dec_03_1513,verb_impression,60.01149845832779,
接する,非社交的な-社交的な,0,213,213,46,2,3.858,,001,2018_Dec_03_1513,verb_impression,60.01149845832779,
発表する,短気な-気長な,0,214,214,1098,0,6.625,,001,2018_Dec_03_1513,verb_impression,60.01149845832779,
任す,軽薄な-重厚な,0,215,215,1190,0,3.895,,001,2018_Dec_03_1513,verb_impression,60.01149845832779,
助ける,無気力な-意欲的な,0,216,216,476,2,4.73,,001,2018_Dec_03_1513,verb_impression,60.01149845832779,
心配する,自信のない-自信のある,0,217,217,157,-2,4.415,,001,2018_Dec_03_1513,verb_impression,60.01149845832779,
交流する,短気な-気長な,0,218,218,658,1,5.091,,001,2018_Dec_03_1513,verb_impression,60.01149845832779,
確認する,憎らしい-可愛らしい,0,219,219,1164,0,3.539,,001,2018_Dec_03_1513,verb_impression,60.01149845832779,
怒る,不親切な-親切な,0,220,220,379,-2,2.582,,001,2018_Dec_03_1513,verb_impression,60.01149845832779,
発表する,生意気な-生意気でない,0,221,221,1082,0,2.845,,001,2018_Dec_03_1513,verb_impression,60.01149845832779,
見下す,自信のない-自信のある,0,222,222,437,2,2.801,,001,2018_Dec_03_1513,verb_impression,60.01149845832779,
近寄る,沈んだ-うきうきした,0,223,223,891,1,3.381,,001,2018_Dec_03_1513,verb_impression,60.01149845832779,
行く,短気な-気長な,0,224,224,518,0,1.975,,001,2018_Dec_03_1513,verb_impression,60.01149845832779,
発言する,親しみにくい-親しみやすい,0,225,225,575,1,3.311,,001,2018_Dec_03_1513,verb_impression,60.01149845832779,
与える,短気な-気長な,0,226,226,1158,2,2.451,,001,2018_Dec_03_1513,verb_impression,60.01149845832779,
休む,沈んだ-うきうきした,0,227,227,971,1,3.983,,001,2018_Dec_03_1513,verb_impression,60.01149845832779,
送る,短気な-気長な,0,228,228,298,1,4.108,,001,2018_Dec_03_1513,verb_impression,60.01149845832779,
合う,沈んだ-うきうきした,0,229,229,231,0,2.786,,001,2018_Dec_03_1513,verb_impression,60.01149845832779,
貸す,自信のない-自信のある,0,230,230,177,2,5.039,,001,2018_Dec_03_1513,verb_impression,60.01149845832779,
気に入る,心の狭い-心の広い,0,231,231,25,1,4.822,,001,2018_Dec_03_1513,verb_impression,60.01149845832779,
歌う,軽率な-慎重な,0,232,232,1128,-1,4.609,,001,2018_Dec_03_1513,verb_impression,60.01149845832779,
飲む,心の狭い-心の広い,0,233,233,585,0,21.303,,001,2018_Dec_03_1513,verb_impression,60.01149845832779,
接する,生意気な-生意気でない,0,234,234,42,0,2.965,,001,2018_Dec_03_1513,verb_impression,60.01149845832779,
旅行する,責任感のない-責任感のある,0,235,235,747,0,2.59,,001,2018_Dec_03_1513,verb_impression,60.01149845832779,
気に入る,無気力な-意欲的な,0,236,236,36,1,3.716,,001,2018_Dec_03_1513,verb_impression,60.01149845832779,
聞く,近づきがたい-人懐っこい,0,237,237,103,1,2.227,,001,2018_Dec_03_1513,verb_impression,60.01149845832779,
行く,非社交的な-社交的な,0,238,238,506,2,2.931,,001,2018_Dec_03_1513,verb_impression,60.01149845832779,
仕事する,沈んだ-うきうきした,0,239,239,791,0,3.092,,001,2018_Dec_03_1513,verb_impression,60.01149845832779,
教える,人のわるい-人の良い,0,240,240,321,2,2.59,,001,2018_Dec_03_1513,verb_impression,60.01149845832779,
相談する,無気力な-意欲的な,0,241,241,196,1,5.243,,001,2018_Dec_03_1513,verb_impression,60.01149845832779,
持つ,感じの悪い-感じの良い,0,242,242,533,0,2.707,,001,2018_Dec_03_1513,verb_impression,60.01149845832779,
決める,親しみにくい-親しみやすい,0,243,243,855,0,3.632,,001,2018_Dec_03_1513,verb_impression,60.01149845832779,
感じる,卑屈な-堂々とした,0,244,244,312,0,3.61,,001,2018_Dec_03_1513,verb_impression,60.01149845832779,
活動する,憎らしい-可愛らしい,0,245,245,824,1,6.85,,001,2018_Dec_03_1513,verb_impression,60.01149845832779,
考える,不親切な-親切な,0,246,246,639,0,5.545,,001,2018_Dec_03_1513,verb_impression,60.01149845832779,
断る,非社交的な-社交的な,0,247,247,86,-2,6.093,,001,2018_Dec_03_1513,verb_impression,60.01149845832779,
沈む,憎らしい-可愛らしい,0,248,248,1104,0,5.161,,001,2018_Dec_03_1513,verb_impression,60.01149845832779,
気に入る,沈んだ-うきうきした,0,249,249,31,1,3.426,,001,2018_Dec_03_1513,verb_impression,60.01149845832779,
任す,消極的な-積極的な,0,250,250,1180,0,3.095,,001,2018_Dec_03_1513,verb_impression,60.01149845832779,
話す,非社交的な-社交的な,0,251,251,346,2,2.742,,001,2018_Dec_03_1513,verb_impression,60.01149845832779,
話しかける,卑屈な-堂々とした,0,252,252,492,3,5.84,,001,2018_Dec_03_1513,verb_impression,60.01149845832779,
確認する,軽率な-慎重な,0,253,253,1168,3,4.399,,001,2018_Dec_03_1513,verb_impression,60.01149845832779,
感じる,人のわるい-人の良い,0,254,254,301,0,10.686,,001,2018_Dec_03_1513,verb_impression,60.01149845832779,
計画する,軽薄な-重厚な,0,255,255,930,2,9.443,,001,2018_Dec_03_1513,verb_impression,60.01149845832779,
任す,責任感のない-責任感のある,0,256,256,1187,1,5.353,,001,2018_Dec_03_1513,verb_impression,60.01149845832779,
進む,無分別な-分別のある,0,257,257,734,0,4.019,,001,2018_Dec_03_1513,verb_impression,60.01149845832779,
立候補する,感じの悪い-感じの良い,0,258,258,1073,0,3.649,,001,2018_Dec_03_1513,verb_impression,60.01149845832779,
発言する,恥知らずの-恥ずかしがりの,0,259,259,569,-1,3.287,,001,2018_Dec_03_1513,verb_impression,60.01149845832779,
断る,不親切な-親切な,0,260,260,99,-2,14.942,,001,2018_Dec_03_1513,verb_impression,60.01149845832779,
頼む,短気な-気長な,0,261,261,138,0,12.638,,001,2018_Dec_03_1513,verb_impression,60.01149845832779,
教える,沈んだ-うきうきした,0,262,262,331,0,3.368,,001,2018_Dec_03_1513,verb_impression,60.01149845832779,
心配する,無分別な-分別のある,0,263,263,154,2,6.525,,001,2018_Dec_03_1513,verb_impression,60.01149845832779,
行く,自信のない-自信のある,0,264,264,517,3,3.344,,001,2018_Dec_03_1513,verb_impression,60.01149845832779,
言う,親しみにくい-親しみやすい,0,265,265,455,1,2.806,,001,2018_Dec_03_1513,verb_impression,60.01149845832779,
話しかける,感じの悪い-感じの良い,0,266,266,493,1,3.963,,001,2018_Dec_03_1513,verb_impression,60.01149845832779,
連絡する,生意気な-生意気でない,0,267,267,2,0,3.055,,001,2018_Dec_03_1513,verb_impression,60.01149845832779,
出る,近づきがたい-人懐っこい,0,268,268,863,1,16.423,,001,2018_Dec_03_1513,verb_impression,60.01149845832779,
進む,沈んだ-うきうきした,0,269,269,731,2,3.871,,001,2018_Dec_03_1513,verb_impression,60.01149845832779,
受け入れる,短気な-気長な,0,270,270,258,3,3.97,,001,2018_Dec_03_1513,verb_impression,60.01149845832779,
卑下する,自信のない-自信のある,0,271,271,997,-3,3.392,,001,2018_Dec_03_1513,verb_impression,60.01149845832779,
合う,感じの悪い-感じの良い,0,272,272,233,2,3.114,,001,2018_Dec_03_1513,verb_impression,60.01149845832779,
対応する,非社交的な-社交的な,0,273,273,66,2,4.623,,001,2018_Dec_03_1513,verb_impression,60.01149845832779,
発言する,近づきがたい-人懐っこい,0,274,274,563,2,3.107,,001,2018_Dec_03_1513,verb_impression,60.01149845832779,
接する,無分別な-分別のある,0,275,275,54,1,3.973,,001,2018_Dec_03_1513,verb_impression,60.01149845832779,
断る,沈んだ-うきうきした,0,276,276,91,-1,3.336,,001,2018_Dec_03_1513,verb_impression,60.01149845832779,
怒る,軽率な-慎重な,0,277,277,368,-1,4.394,,001,2018_Dec_03_1513,verb_impression,60.01149845832779,
行動する,軽薄な-重厚な,0,278,278,610,0,11.624,,001,2018_Dec_03_1513,verb_impression,60.01149845832779,
心配する,恥知らずの-恥ずかしがりの,0,279,279,149,1,10.324,,001,2018_Dec_03_1513,verb_impression,60.01149845832779,
言う,感じの悪い-感じの良い,0,280,280,453,0,15.356,,001,2018_Dec_03_1513,verb_impression,60.01149845832779,
気に入る,近づきがたい-人懐っこい,0,281,281,23,2,9.038,,001,2018_Dec_03_1513,verb_impression,60.01149845832779,
連絡する,恥知らずの-恥ずかしがりの,0,282,282,9,-1,5.271,,001,2018_Dec_03_1513,verb_impression,60.01149845832779,
行く,不親切な-親切な,0,283,283,519,0,3.107,,001,2018_Dec_03_1513,verb_impression,60.01149845832779,
発表する,無分別な-分別のある,0,284,284,1094,0,3.944,,001,2018_Dec_03_1513,verb_impression,60.01149845832779,
聞く,人のわるい-人の良い,0,285,285,101,2,28.537,,001,2018_Dec_03_1513,verb_impression,60.01149845832779,
考える,恥知らずの-恥ずかしがりの,0,286,286,629,2,6.973,,001,2018_Dec_03_1513,verb_impression,60.01149845832779,
持つ,不親切な-親切な,0,287,287,539,0,15.525,,001,2018_Dec_03_1513,verb_impression,60.01149845832779,
取り組む,無気力な-意欲的な,0,288,288,716,3,593.387,,001,2018_Dec_03_1513,verb_impression,60.01149845832779,
相談する,責任感のない-責任感のある,0,289,289,187,1,7.975,,001,2018_Dec_03_1513,verb_impression,60.01149845832779,
受け入れる,責任感のない-責任感のある,0,290,290,247,2,2.5,,001,2018_Dec_03_1513,verb_impression,60.01149845832779,
持つ,近づきがたい-人懐っこい,0,291,291,523,0,2.346,,001,2018_Dec_03_1513,verb_impression,60.01149845832779,
近づく,短気な-気長な,0,292,292,1038,0,2.619,,001,2018_Dec_03_1513,verb_impression,60.01149845832779,
接する,短気な-気長な,0,293,293,58,0,3.649,,001,2018_Dec_03_1513,verb_impression,60.01149845832779,
計画する,軽率な-慎重な,0,294,294,928,3,15.292,,001,2018_Dec_03_1513,verb_impression,60.01149845832779,
貸す,無気力な-意欲的な,0,295,295,176,0,4.874,,001,2018_Dec_03_1513,verb_impression,60.01149845832779,
近寄る,軽薄な-重厚な,0,296,296,890,-1,4.097,,001,2018_Dec_03_1513,verb_impression,60.01149845832779,
貸す,心の狭い-心の広い,0,297,297,165,3,2.54,,001,2018_Dec_03_1513,verb_impression,60.01149845832779,
心配する,軽薄な-重厚な,0,298,298,150,2,5.843,,001,2018_Dec_03_1513,verb_impression,60.01149845832779,
買う,軽薄な-重厚な,0,299,299,810,0,3.873,,001,2018_Dec_03_1513,verb_impression,60.01149845832779,
持つ,非社交的な-社交的な,0,300,300,526,0,3.447,,001,2018_Dec_03_1513,verb_impression,60.01149845832779,
連絡する,親しみにくい-親しみやすい,0,301,301,15,2,12.451,,001,2018_Dec_03_1513,verb_impression,60.01149845832779,
貸す,不親切な-親切な,0,302,302,179,1,4.241,,001,2018_Dec_03_1513,verb_impression,60.01149845832779,
感じる,非社交的な-社交的な,0,303,303,306,0,23.983,,001,2018_Dec_03_1513,verb_impression,60.01149845832779,
気に入る,感じの悪い-感じの良い,0,304,304,33,2,17.538,,001,2018_Dec_03_1513,verb_impression,60.01149845832779,
目立つ,感じの悪い-感じの良い,0,305,305,913,0,3.033,,001,2018_Dec_03_1513,verb_impression,60.01149845832779,
対応する,軽薄な-重厚な,0,306,306,70,0,3.143,,001,2018_Dec_03_1513,verb_impression,60.01149845832779,
楽しむ,責任感のない-責任感のある,0,307,307,767,0,2.093,,001,2018_Dec_03_1513,verb_impression,60.01149845832779,
親しむ,卑屈な-堂々とした,0,308,308,392,1,2.64,,001,2018_Dec_03_1513,verb_impression,60.01149845832779,
飲む,沈んだ-うきうきした,0,309,309,591,1,2.484,,001,2018_Dec_03_1513,verb_impression,60.01149845832779,
困る,軽薄な-重厚な,0,310,310,410,1,3.517,,001,2018_Dec_03_1513,verb_impression,60.01149845832779,
確認する,親しみにくい-親しみやすい,0,311,311,1175,0,3.964,,001,2018_Dec_03_1513,verb_impression,60.01149845832779,
与える,軽率な-慎重な,0,312,312,1148,0,7.428,,001,2018_Dec_03_1513,verb_impression,60.01149845832779,
断る,短気な-気長な,0,313,313,98,-1,4.485,,001,2018_Dec_03_1513,verb_impression,60.01149845832779,
話す,心の狭い-心の広い,0,314,314,345,2,13.688,,001,2018_Dec_03_1513,verb_impression,60.01149845832779,
近づく,軽薄な-重厚な,0,315,315,1030,0,3.602,,001,2018_Dec_03_1513,verb_impression,60.01149845832779,
入る,親しみにくい-親しみやすい,0,316,316,695,0,2.789,,001,2018_Dec_03_1513,verb_impression,60.01149845832779,
評価する,恥知らずの-恥ずかしがりの,0,317,317,549,0,2.702,,001,2018_Dec_03_1513,verb_impression,60.01149845832779,
決める,軽薄な-重厚な,0,318,318,850,1,3.354,,001,2018_Dec_03_1513,verb_impression,60.01149845832779,
合う,近づきがたい-人懐っこい,0,319,319,223,1,3.259,,001,2018_Dec_03_1513,verb_impression,60.01149845832779,
落ち込む,憎らしい-可愛らしい,0,320,320,1004,0,2.951,,001,2018_Dec_03_1513,verb_impression,60.01149845832779,
活動する,生意気な-生意気でない,0,321,321,822,-1,3.576,,001,2018_Dec_03_1513,verb_impression,60.01149845832779,
卑下する,恥知らずの-恥ずかしがりの,0,322,322,989,1,9.388,,001,2018_Dec_03_1513,verb_impression,60.01149845832779,
確認する,自信のない-自信のある,0,323,323,1177,-1,3.398,,001,2018_Dec_03_1513,verb_impression,60.01149845832779,
決める,恥知らずの-恥ずかしがりの,0,324,324,849,0,2.672,,001,2018_Dec_03_1513,verb_impression,60.01149845832779,
心配する,親しみにくい-親しみやすい,0,325,325,155,0,4.111,,001,2018_Dec_03_1513,verb_impression,60.01149845832779,
飲む,近づきがたい-人懐っこい,0,326,326,583,1,4.682,,001,2018_Dec_03_1513,verb_impression,60.01149845832779,
考える,憎らしい-可愛らしい,0,327,327,624,0,2.409,,001,2018_Dec_03_1513,verb_impression,60.01149845832779,
送る,責任感のない-責任感のある,0,328,328,287,0,4.567,,001,2018_Dec_03_1513,verb_impression,60.01149845832779,
断る,親しみにくい-親しみやすい,0,329,329,95,-1,2.416,,001,2018_Dec_03_1513,verb_impression,60.01149845832779,
見下す,感じの悪い-感じの良い,0,330,330,433,-3,3.05,,001,2018_Dec_03_1513,verb_impression,60.01149845832779,
入る,卑屈な-堂々とした,0,331,331,692,0,2.286,,001,2018_Dec_03_1513,verb_impression,60.01149845832779,
立候補する,無気力な-意欲的な,0,332,332,1076,3,2.998,,001,2018_Dec_03_1513,verb_impression,60.01149845832779,
進む,軽率な-慎重な,0,333,333,728,0,2.698,,001,2018_Dec_03_1513,verb_impression,60.01149845832779,
決める,近づきがたい-人懐っこい,0,334,334,843,0,31.545,,001,2018_Dec_03_1513,verb_impression,60.01149845832779,
行く,責任感のない-責任感のある,0,335,335,507,0,2.524,,001,2018_Dec_03_1513,verb_impression,60.01149845832779,
交流する,不親切な-親切な,0,336,336,659,2,3.565,,001,2018_Dec_03_1513,verb_impression,60.01149845832779,
取り組む,親しみにくい-親しみやすい,0,337,337,715,0,2.146,,001,2018_Dec_03_1513,verb_impression,60.01149845832779,
怒る,親しみにくい-親しみやすい,0,338,338,375,-3,2.708,,001,2018_Dec_03_1513,verb_impression,60.01149845832779,
決める,不親切な-親切な,0,339,339,859,0,2.615,,001,2018_Dec_03_1513,verb_impression,60.01149845832779,
任す,恥知らずの-恥ずかしがりの,0,340,340,1189,0,2.646,,001,2018_Dec_03_1513,verb_impression,60.01149845832779,
飲む,責任感のない-責任感のある,0,341,341,587,-1,3.862,,001,2018_Dec_03_1513,verb_impression,60.01149845832779,
言う,軽薄な-重厚な,0,342,342,450,0,4.118,,001,2018_Dec_03_1513,verb_impression,60.01149845832779,
教える,無分別な-分別のある,0,343,343,334,2,2.952,,001,2018_Dec_03_1513,verb_impression,60.01149845832779,
聞く,卑屈な-堂々とした,0,344,344,112,1,3.115,,001,2018_Dec_03_1513,verb_impression,60.01149845832779,
心配する,心の狭い-心の広い,0,345,345,145,0,4.908,,001,2018_Dec_03_1513,verb_impression,60.01149845832779,
行動する,憎らしい-可愛らしい,0,346,346,604,0,24.892,,001,2018_Dec_03_1513,verb_impression,60.01149845832779,
気に入る,軽薄な-重厚な,0,347,347,30,0,4.933,,001,2018_Dec_03_1513,verb_impression,60.01149845832779,
楽しむ,不親切な-親切な,0,348,348,779,1,10.352,,001,2018_Dec_03_1513,verb_impression,60.01149845832779,
親しむ,消極的な-積極的な,0,349,349,380,2,3.839,,001,2018_Dec_03_1513,verb_impression,60.01149845832779,
与える,不親切な-親切な,0,350,350,1159,2,2.115,,001,2018_Dec_03_1513,verb_impression,60.01149845832779,
確認する,無分別な-分別のある,0,351,351,1174,3,3.566,,001,2018_Dec_03_1513,verb_impression,60.01149845832779,
合う,軽率な-慎重な,0,352,352,228,0,2.01,,001,2018_Dec_03_1513,verb_impression,60.01149845832779,
聞く,憎らしい-可愛らしい,0,353,353,104,2,2.198,,001,2018_Dec_03_1513,verb_impression,60.01149845832779,
行く,人のわるい-人の良い,0,354,354,501,0,2.074,,001,2018_Dec_03_1513,verb_impression,60.01149845832779,
取り組む,近づきがたい-人懐っこい,0,355,355,703,0,2.029,,001,2018_Dec_03_1513,verb_impression,60.01149845832779,
行う,感じの悪い-感じの良い,0,356,356,673,0,2.363,,001,2018_Dec_03_1513,verb_impression,60.01149845832779,
頼む,沈んだ-うきうきした,0,357,357,131,1,3.267,,001,2018_Dec_03_1513,verb_impression,60.01149845832779,
落ち込む,自信のない-自信のある,0,358,358,1017,-2,8.183,,001,2018_Dec_03_1513,verb_impression,60.01149845832779,
考える,非社交的な-社交的な,0,359,359,626,0,2.502,,001,2018_Dec_03_1513,verb_impression,60.01149845832779,
話す,憎らしい-可愛らしい,0,360,360,344,0,2.484,,001,2018_Dec_03_1513,verb_impression,60.01149845832779,
計画する,近づきがたい-人懐っこい,0,361,361,923,0,14.245,,001,2018_Dec_03_1513,verb_impression,60.01149845832779,
飲む,恥知らずの-恥ずかしがりの,0,362,362,589,-1,2.256,,001,2018_Dec_03_1513,verb_impression,60.01149845832779,
決める,憎らしい-可愛らしい,0,363,363,844,0,6.798,,001,2018_Dec_03_1513,verb_impression,60.01149845832779,
心配する,消極的な-積極的な,0,364,364,140,-2,3.918,,001,2018_Dec_03_1513,verb_impression,60.01149845832779,
交流する,自信のない-自信のある,0,365,365,657,2,2.249,,001,2018_Dec_03_1513,verb_impression,60.01149845832779,
考える,自信のない-自信のある,0,366,366,637,0,3.405,,001,2018_Dec_03_1513,verb_impression,60.01149845832779,
近寄る,人のわるい-人の良い,0,367,367,881,0,3.344,,001,2018_Dec_03_1513,verb_impression,60.01149845832779,
活動する,軽薄な-重厚な,0,368,368,830,-1,4.765,,001,2018_Dec_03_1513,verb_impression,60.01149845832779,
沈む,恥知らずの-恥ずかしがりの,0,369,369,1109,1,42.729,,001,2018_Dec_03_1513,verb_impression,60.01149845832779,
怒る,心の狭い-心の広い,0,370,370,365,-3,14.36,,001,2018_Dec_03_1513,verb_impression,60.01149845832779,
沈む,卑屈な-堂々とした,0,371,371,1112,-1,4.316,,001,2018_Dec_03_1513,verb_impression,60.01149845832779,
決める,感じの悪い-感じの良い,0,372,372,853,0,2.873,,001,2018_Dec_03_1513,verb_impression,60.01149845832779,
頼む,親しみにくい-親しみやすい,0,373,373,135,1,5.079,,001,2018_Dec_03_1513,verb_impression,60.01149845832779,
出る,無気力な-意欲的な,0,374,374,876,2,3.017,,001,2018_Dec_03_1513,verb_impression,60.01149845832779,
歌う,自信のない-自信のある,0,375,375,1137,2,3.647,,001,2018_Dec_03_1513,verb_impression,60.01149845832779,
落ち込む,不親切な-親切な,0,376,376,1019,0,14.048,,001,2018_Dec_03_1513,verb_impression,60.01149845832779,
送る,消極的な-積極的な,0,377,377,280,0,2.533,,001,2018_Dec_03_1513,verb_impression,60.01149845832779,
卑下する,人のわるい-人の良い,0,378,378,981,0,3.113,,001,2018_Dec_03_1513,verb_impression,60.01149845832779,
出る,短気な-気長な,0,379,379,878,0,2.115,,001,2018_Dec_03_1513,verb_impression,60.01149845832779,
断る,消極的な-積極的な,0,380,380,80,-2,2.367,,001,2018_Dec_03_1513,verb_impression,60.01149845832779,
評価する,不親切な-親切な,0,381,381,559,0,2.464,,001,2018_Dec_03_1513,verb_impression,60.01149845832779,
気に入る,不親切な-親切な,0,382,382,39,0,2.069,,001,2018_Dec_03_1513,verb_impression,60.01149845832779,
感じる,自信のない-自信のある,0,383,383,317,0,2.098,,001,2018_Dec_03_1513,verb_impression,60.01149845832779,
話す,責任感のない-責任感のある,0,384,384,347,0,17.24,,001,2018_Dec_03_1513,verb_impression,60.01149845832779,
近づく,生意気な-生意気でない,0,385,385,1022,1,417.782,,001,2018_Dec_03_1513,verb_impression,60.01149845832779,
参加する,憎らしい-可愛らしい,0,386,386,944,1,5.774,,001,2018_Dec_03_1513,verb_impression,60.01149845832779,
任す,親しみにくい-親しみやすい,0,387,387,1195,2,2.444,,001,2018_Dec_03_1513,verb_impression,60.01149845832779,
話す,卑屈な-堂々とした,0,388,388,352,2,3.113,,001,2018_Dec_03_1513,verb_impression,60.01149845832779,
取り組む,生意気な-生意気でない,0,389,389,702,0,2.745,,001,2018_Dec_03_1513,verb_impression,60.01149845832779,
教える,軽薄な-重厚な,0,390,390,330,1,2.46,,001,2018_Dec_03_1513,verb_impression,60.01149845832779,
貸す,恥知らずの-恥ずかしがりの,0,391,391,169,0,5.078,,001,2018_Dec_03_1513,verb_impression,60.01149845832779,
近づく,親しみにくい-親しみやすい,0,392,392,1035,2,2.722,,001,2018_Dec_03_1513,verb_impression,60.01149845832779,
断る,憎らしい-可愛らしい,0,393,393,84,-2,2.313,,001,2018_Dec_03_1513,verb_impression,60.01149845832779,
仕事する,生意気な-生意気でない,0,394,394,782,0,11.863,,001,2018_Dec_03_1513,verb_impression,60.01149845832779,
行う,卑屈な-堂々とした,0,395,395,672,0,2.892,,001,2018_Dec_03_1513,verb_impression,60.01149845832779,
沈む,責任感のない-責任感のある,0,396,396,1107,0,3.441,,001,2018_Dec_03_1513,verb_impression,60.01149845832779,
許す,非社交的な-社交的な,0,397,397,266,2,4.492,,001,2018_Dec_03_1513,verb_impression,60.01149845832779,
困る,不親切な-親切な,0,398,398,419,0,6.116,,001,2018_Dec_03_1513,verb_impression,60.01149845832779,
引き受ける,短気な-気長な,0,399,399,218,2,2.609,,001,2018_Dec_03_1513,verb_impression,60.01149845832779,
見下す,憎らしい-可愛らしい,0,400,400,424,-3,2.362,,001,2018_Dec_03_1513,verb_impression,60.01149845832779,
持つ,親しみにくい-親しみやすい,0,401,401,535,0,2.611,,001,2018_Dec_03_1513,verb_impression,60.01149845832779,
受け入れる,人のわるい-人の良い,0,402,402,241,3,3.249,,001,2018_Dec_03_1513,verb_impression,60.01149845832779,
怒る,感じの悪い-感じの良い,0,403,403,373,-2,5.23,,001,2018_Dec_03_1513,verb_impression,60.01149845832779,
発表する,近づきがたい-人懐っこい,0,404,404,1083,1,3.268,,001,2018_Dec_03_1513,verb_impression,60.01149845832779,
断る,無分別な-分別のある,0,405,405,94,0,2.382,,001,2018_Dec_03_1513,verb_impression,60.01149845832779,
行動する,短気な-気長な,0,406,406,618,-1,2.827,,001,2018_Dec_03_1513,verb_impression,60.01149845832779,
目立つ,卑屈な-堂々とした,0,407,407,912,2,4.382,,001,2018_Dec_03_1513,verb_impression,60.01149845832779,
聞く,感じの悪い-感じの良い,0,408,408,113,2,2.362,,001,2018_Dec_03_1513,verb_impression,60.01149845832779,
交流する,憎らしい-可愛らしい,0,409,409,644,1,4.779,,001,2018_Dec_03_1513,verb_impression,60.01149845832779,
交流する,卑屈な-堂々とした,0,410,410,652,2,2.984,,001,2018_Dec_03_1513,verb_impression,60.01149845832779,
考える,消極的な-積極的な,0,411,411,620,1,4.105,,001,2018_Dec_03_1513,verb_impression,60.01149845832779,
助ける,軽率な-慎重な,0,412,412,468,2,4.102,,001,2018_Dec_03_1513,verb_impression,60.01149845832779,
行動する,恥知らずの-恥ずかしがりの,0,413,413,609,-1,2.59,,001,2018_Dec_03_1513,verb_impression,60.01149845832779,
行動する,生意気な-生意気でない,0,414,414,602,0,2.435,,001,2018_Dec_03_1513,verb_impression,60.01149845832779,
聞く,消極的な-積極的な,0,415,415,100,0,14.019,,001,2018_Dec_03_1513,verb_impression,60.01149845832779,
旅行する,非社交的な-社交的な,0,416,416,746,1,4.282,,001,2018_Dec_03_1513,verb_impression,60.01149845832779,
評価する,短気な-気長な,0,417,417,558,0,4.07,,001,2018_Dec_03_1513,verb_impression,60.01149845832779,
受け入れる,感じの悪い-感じの良い,0,418,418,253,2,3.943,,001,2018_Dec_03_1513,verb_impression,60.01149845832779,
心配する,短気な-気長な,0,419,419,158,-1,4.912,,001,2018_Dec_03_1513,verb_impression,60.01149845832779,
飲む,軽率な-慎重な,0,420,420,588,0,1.92,,001,2018_Dec_03_1513,verb_impression,60.01149845832779,
与える,感じの悪い-感じの良い,0,421,421,1153,3,2.831,,001,2018_Dec_03_1513,verb_impression,60.01149845832779,
持つ,消極的な-積極的な,0,422,422,520,0,3.019,,001,2018_Dec_03_1513,verb_impression,60.01149845832779,
教える,短気な-気長な,0,423,423,338,0,2.612,,001,2018_Dec_03_1513,verb_impression,60.01149845832779,
入る,軽薄な-重厚な,0,424,424,690,0,2.338,,001,2018_Dec_03_1513,verb_impression,60.01149845832779,
沈む,軽薄な-重厚な,0,425,425,1110,1,4.172,,001,2018_Dec_03_1513,verb_impression,60.01149845832779,
任す,無気力な-意欲的な,0,426,426,1196,0,2.899,,001,2018_Dec_03_1513,verb_impression,60.01149845832779,
行動する,人のわるい-人の良い,0,427,427,601,0,3.797,,001,2018_Dec_03_1513,verb_impression,60.01149845832779,
話す,不親切な-親切な,0,428,428,359,1,4.13,,001,2018_Dec_03_1513,verb_impression,60.01149845832779,
決める,無気力な-意欲的な,0,429,429,856,2,3.993,,001,2018_Dec_03_1513,verb_impression,60.01149845832779,
確認する,近づきがたい-人懐っこい,0,430,430,1163,0,2.666,,001,2018_Dec_03_1513,verb_impression,60.01149845832779,
見下す,無気力な-意欲的な,0,431,431,436,0,4.632,,001,2018_Dec_03_1513,verb_impression,60.01149845832779,
休む,人のわるい-人の良い,0,432,432,961,0,1.998,,001,2018_Dec_03_1513,verb_impression,60.01149845832779,
入る,不親切な-親切な,0,433,433,699,0,2.002,,001,2018_Dec_03_1513,verb_impression,60.01149845832779,
活動する,自信のない-自信のある,0,434,434,837,2,2.612,,001,2018_Dec_03_1513,verb_impression,60.01149845832779,
貸す,憎らしい-可愛らしい,0,435,435,164,1,4.416,,001,2018_Dec_03_1513,verb_impression,60.01149845832779,
近づく,自信のない-自信のある,0,436,436,1037,1,2.966,,001,2018_Dec_03_1513,verb_impression,60.01149845832779,
送る,自信のない-自信のある,0,437,437,297,0,2.194,,001,2018_Dec_03_1513,verb_impression,60.01149845832779,
参加する,感じの悪い-感じの良い,0,438,438,953,1,2.58,,001,2018_Dec_03_1513,verb_impression,60.01149845832779,
近づく,沈んだ-うきうきした,0,439,439,1031,1,3.301,,001,2018_Dec_03_1513,verb_impression,60.01149845832779,
親しむ,心の狭い-心の広い,0,440,440,385,1,3.894,,001,2018_Dec_03_1513,verb_impression,60.01149845832779,
見下す,無分別な-分別のある,0,441,441,434,-2,2.337,,001,2018_Dec_03_1513,verb_impression,60.01149845832779,
対応する,心の狭い-心の広い,0,442,442,65,2,9.429,,001,2018_Dec_03_1513,verb_impression,60.01149845832779,
困る,短気な-気長な,0,443,443,418,0,2.387,,001,2018_Dec_03_1513,verb_impression,60.01149845832779,
親しむ,親しみにくい-親しみやすい,0,444,444,395,2,2.91,,001,2018_Dec_03_1513,verb_impression,60.01149845832779,
怒る,責任感のない-責任感のある,0,445,445,367,-1,4.551,,001,2018_Dec_03_1513,verb_impression,60.01149845832779,
楽しむ,心の狭い-心の広い,0,446,446,765,3,3.218,,001,2018_Dec_03_1513,verb_impression,60.01149845832779,
行く,沈んだ-うきうきした,0,447,447,511,0,1.785,,001,2018_Dec_03_1513,verb_impression,60.01149845832779,
参加する,心の狭い-心の広い,0,448,448,945,2,4.879,,001,2018_Dec_03_1513,verb_impression,60.01149845832779,
与える,無気力な-意欲的な,0,449,449,1156,1,3.285,,001,2018_Dec_03_1513,verb_impression,60.01149845832779,
行う,親しみにくい-親しみやすい,0,450,450,675,0,5.665,,001,2018_Dec_03_1513,verb_impression,60.01149845832779,
持つ,恥知らずの-恥ずかしがりの,0,451,451,529,0,2.026,,001,2018_Dec_03_1513,verb_impression,60.01149845832779,
持つ,責任感のない-責任感のある,0,452,452,527,0,1.899,,001,2018_Dec_03_1513,verb_impression,60.01149845832779,
楽しむ,沈んだ-うきうきした,0,453,453,771,3,4.71,,001,2018_Dec_03_1513,verb_impression,60.01149845832779,
貸す,軽率な-慎重な,0,454,454,168,0,3.379,,001,2018_Dec_03_1513,verb_impression,60.01149845832779,
言う,消極的な-積極的な,0,455,455,440,1,4.027,,001,2018_Dec_03_1513,verb_impression,60.01149845832779,
進む,近づきがたい-人懐っこい,0,456,456,723,1,3.366,,001,2018_Dec_03_1513,verb_impression,60.01149845832779,
参加する,無気力な-意欲的な,0,457,457,956,3,1102.227,,001,2018_Dec_03_1513,verb_impression,60.01149845832779,
評価する,責任感のない-責任感のある,0,458,458,547,0,57.768,,001,2018_Dec_03_1513,verb_impression,60.01149845832779,
話しかける,親しみにくい-親しみやすい,0,459,459,495,3,24.639,,001,2018_Dec_03_1513,verb_impression,60.01149845832779,
連絡する,感じの悪い-感じの良い,0,460,460,13,1,37.194,,001,2018_Dec_03_1513,verb_impression,60.01149845832779,
気に入る,自信のない-自信のある,0,461,461,37,1,4.358,,001,2018_Dec_03_1513,verb_impression,60.01149845832779,
引き受ける,人のわるい-人の良い,0,462,462,201,3,5.089,,001,2018_Dec_03_1513,verb_impression,60.01149845832779,
買う,短気な-気長な,0,463,463,818,0,40.262,,001,2018_Dec_03_1513,verb_impression,60.01149845832779,
休む,感じの悪い-感じの良い,0,464,464,973,0,188.86,,001,2018_Dec_03_1513,verb_impression,60.01149845832779,
教える,軽率な-慎重な,0,465,465,328,2,2.601,,001,2018_Dec_03_1513,verb_impression,60.01149845832779,
近寄る,無気力な-意欲的な,0,466,466,896,1,10.429,,001,2018_Dec_03_1513,verb_impression,60.01149845832779,
計画する,人のわるい-人の良い,0,467,467,921,0,2.983,,001,2018_Dec_03_1513,verb_impression,60.01149845832779,
進む,軽薄な-重厚な,0,468,468,730,-1,15.153,,001,2018_Dec_03_1513,verb_impression,60.01149845832779,
見下す,人のわるい-人の良い,0,469,469,421,-3,2.634,,001,2018_Dec_03_1513,verb_impression,60.01149845832779,
発表する,不親切な-親切な,0,470,470,1099,0,2.235,,001,2018_Dec_03_1513,verb_impression,60.01149845832779,
心配する,非社交的な-社交的な,0,471,471,146,0,3.95,,001,2018_Dec_03_1513,verb_impression,60.01149845832779,
受け入れる,生意気な-生意気でない,0,472,472,242,2,3.182,,001,2018_Dec_03_1513,verb_impression,60.01149845832779,
卑下する,非社交的な-社交的な,0,473,473,986,-2,3.064,,001,2018_Dec_03_1513,verb_impression,60.01149845832779,
参加する,消極的な-積極的な,0,474,474,940,3,5.202,,001,2018_Dec_03_1513,verb_impression,60.01149845832779,
近寄る,非社交的な-社交的な,0,475,475,886,3,5.978,,001,2018_Dec_03_1513,verb_impression,60.01149845832779,
頼む,憎らしい-可愛らしい,0,476,476,124,2,7.216,,001,2018_Dec_03_1513,verb_impression,60.01149845832779,
接する,軽率な-慎重な,0,477,477,48,0,4.581,,001,2018_Dec_03_1513,verb_impression,60.01149845832779,
卑下する,近づきがたい-人懐っこい,0,478,478,983,-1,13.625,,001,2018_Dec_03_1513,verb_impression,60.01149845832779,
取り組む,不親切な-親切な,0,479,479,719,0,2.753,,001,2018_Dec_03_1513,verb_impression,60.01149845832779,
近づく,非社交的な-社交的な,0,480,480,1026,3,4.995,,001,2018_Dec_03_1513,verb_impression,60.01149845832779,
接する,憎らしい-可愛らしい,0,481,481,44,1,3.684,,001,2018_Dec_03_1513,verb_impression,60.01149845832779,
楽しむ,自信のない-自信のある,0,482,482,777,2,2.928,,001,2018_Dec_03_1513,verb_impression,60.01149845832779,
気に入る,非社交的な-社交的な,0,483,483,26,1,9.331,,001,2018_Dec_03_1513,verb_impression,60.01149845832779,
感じる,無分別な-分別のある,0,484,484,314,0,2.29,,001,2018_Dec_03_1513,verb_impression,60.01149845832779,
楽しむ,卑屈な-堂々とした,0,485,485,772,1,6.115,,001,2018_Dec_03_1513,verb_impression,60.01149845832779,
進む,不親切な-親切な,0,486,486,739,1,9.455,,001,2018_Dec_03_1513,verb_impression,60.01149845832779,
入る,消極的な-積極的な,0,487,487,680,2,2.268,,001,2018_Dec_03_1513,verb_impression,60.01149845832779,
確認する,卑屈な-堂々とした,0,488,488,1172,0,3.877,,001,2018_Dec_03_1513,verb_impression,60.01149845832779,
助ける,感じの悪い-感じの良い,0,489,489,473,3,5.681,,001,2018_Dec_03_1513,verb_impression,60.01149845832779,
卑下する,卑屈な-堂々とした,0,490,490,992,-3,3.501,,001,2018_Dec_03_1513,verb_impression,60.01149845832779,
取り組む,軽薄な-重厚な,0,491,491,710,0,9.885,,001,2018_Dec_03_1513,verb_impression,60.01149845832779,
相談する,心の狭い-心の広い,0,492,492,185,1,3.931,,001,2018_Dec_03_1513,verb_impression,60.01149845832779,
活動する,卑屈な-堂々とした,0,493,493,832,1,4.618,,001,2018_Dec_03_1513,verb_impression,60.01149845832779,
与える,卑屈な-堂々とした,0,494,494,1152,1,2.741,,001,2018_Dec_03_1513,verb_impression,60.01149845832779,
沈む,心の狭い-心の広い,0,495,495,1105,-1,3.348,,001,2018_Dec_03_1513,verb_impression,60.01149845832779,
旅行する,無分別な-分別のある,0,496,496,754,0,1.917,,001,2018_Dec_03_1513,verb_impression,60.01149845832779,
頼む,無分別な-分別のある,0,497,497,134,0,3.327,,001,2018_Dec_03_1513,verb_impression,60.01149845832779,
親しむ,恥知らずの-恥ずかしがりの,0,498,498,389,0,4.382,,001,2018_Dec_03_1513,verb_impression,60.01149845832779,
発表する,無気力な-意欲的な,0,499,499,1096,3,3.416,,001,2018_Dec_03_1513,verb_impression,60.01149845832779,
近づく,無気力な-意欲的な,0,500,500,1036,2,2.275,,001,2018_Dec_03_1513,verb_impression,60.01149845832779,
断る,生意気な-生意気でない,0,501,501,82,-3,3.433,,001,2018_Dec_03_1513,verb_impression,60.01149845832779,
発言する,沈んだ-うきうきした,0,502,502,571,1,2.632,,001,2018_Dec_03_1513,verb_impression,60.01149845832779,
話す,沈んだ-うきうきした,0,503,503,351,1,7.826,,001,2018_Dec_03_1513,verb_impression,60.01149845832779,
考える,責任感のない-責任感のある,0,504,504,627,1,2.43,,001,2018_Dec_03_1513,verb_impression,60.01149845832779,
入る,自信のない-自信のある,0,505,505,697,1,6.951,,001,2018_Dec_03_1513,verb_impression,60.01149845832779,
親しむ,軽薄な-重厚な,0,506,506,390,-1,3.786,,001,2018_Dec_03_1513,verb_impression,60.01149845832779,
歌う,生意気な-生意気でない,0,507,507,1122,0,6.1,,001,2018_Dec_03_1513,verb_impression,60.01149845832779,
活動する,親しみにくい-親しみやすい,0,508,508,835,2,2.331,,001,2018_Dec_03_1513,verb_impression,60.01149845832779,
怒る,近づきがたい-人懐っこい,0,509,509,363,-3,3.513,,001,2018_Dec_03_1513,verb_impression,60.01149845832779,
入る,人のわるい-人の良い,0,510,510,681,0,5.51,,001,2018_Dec_03_1513,verb_impression,60.01149845832779,
感じる,無気力な-意欲的な,0,511,511,316,0,2.986,,001,2018_Dec_03_1513,verb_impression,60.01149845832779,
持つ,憎らしい-可愛らしい,0,512,512,524,0,9.745,,001,2018_Dec_03_1513,verb_impression,60.01149845832779,
頼む,軽薄な-重厚な,0,513,513,130,1,5.603,,001,2018_Dec_03_1513,verb_impression,60.01149845832779,
見下す,卑屈な-堂々とした,0,514,514,432,-1,4.996,,001,2018_Dec_03_1513,verb_impression,60.01149845832779,
旅行する,自信のない-自信のある,0,515,515,757,1,2.779,,001,2018_Dec_03_1513,verb_impression,60.01149845832779,
合う,無気力な-意欲的な,0,516,516,236,0,2.811,,001,2018_Dec_03_1513,verb_impression,60.01149845832779,
発言する,無分別な-分別のある,0,517,517,574,0,3.28,,001,2018_Dec_03_1513,verb_impression,60.01149845832779,
入る,感じの悪い-感じの良い,0,518,518,693,0,5.877,,001,2018_Dec_03_1513,verb_impression,60.01149845832779,
与える,近づきがたい-人懐っこい,0,519,519,1143,2,3.035,,001,2018_Dec_03_1513,verb_impression,60.01149845832779,
貸す,感じの悪い-感じの良い,0,520,520,173,3,22.146,,001,2018_Dec_03_1513,verb_impression,60.01149845832779,
旅行する,憎らしい-可愛らしい,0,521,521,744,0,2.116,,001,2018_Dec_03_1513,verb_impression,60.01149845832779,
感じる,短気な-気長な,0,522,522,318,0,16.182,,001,2018_Dec_03_1513,verb_impression,60.01149845832779,
行動する,自信のない-自信のある,0,523,523,617,2,3.979,,001,2018_Dec_03_1513,verb_impression,60.01149845832779,
怒る,消極的な-積極的な,0,524,524,360,0,3.298,,001,2018_Dec_03_1513,verb_impression,60.01149845832779,
出る,不親切な-親切な,0,525,525,879,0,8.879,,001,2018_Dec_03_1513,verb_impression,60.01149845832779,
決める,沈んだ-うきうきした,0,526,526,851,1,3.082,,001,2018_Dec_03_1513,verb_impression,60.01149845832779,
取り組む,責任感のない-責任感のある,0,527,527,707,1,5.043,,001,2018_Dec_03_1513,verb_impression,60.01149845832779,
歌う,不親切な-親切な,0,528,528,1139,0,7.363,,001,2018_Dec_03_1513,verb_impression,60.01149845832779,
立候補する,心の狭い-心の広い,0,529,529,1065,0,3.927,,001,2018_Dec_03_1513,verb_impression,60.01149845832779,
考える,生意気な-生意気でない,0,530,530,622,0,4.427,,001,2018_Dec_03_1513,verb_impression,60.01149845832779,
話す,消極的な-積極的な,0,531,531,340,2,2.436,,001,2018_Dec_03_1513,verb_impression,60.01149845832779,
発言する,消極的な-積極的な,0,532,532,560,1,3.885,,001,2018_Dec_03_1513,verb_impression,60.01149845832779,
入る,非社交的な-社交的な,0,533,533,686,1,2.546,,001,2018_Dec_03_1513,verb_impression,60.01149845832779,
接する,恥知らずの-恥ずかしがりの,0,534,534,49,-1,3.457,,001,2018_Dec_03_1513,verb_impression,60.01149845832779,
仕事する,人のわるい-人の良い,0,535,535,781,1,3.173,,001,2018_Dec_03_1513,verb_impression,60.01149845832779,
感じる,親しみにくい-親しみやすい,0,536,536,315,0,2.997,,001,2018_Dec_03_1513,verb_impression,60.01149845832779,
務める,自信のない-自信のある,0,537,537,1057,1,48.524,,001,2018_Dec_03_1513,verb_impression,60.01149845832779,
聞く,親しみにくい-親しみやすい,0,538,538,115,2,314.163,,001,2018_Dec_03_1513,verb_impression,60.01149845832779,
合う,非社交的な-社交的な,0,539,539,226,0,8.999,,001,2018_Dec_03_1513,verb_impression,60.01149845832779,
言う,恥知らずの-恥ずかしがりの,0,540,540,449,0,3.214,,001,2018_Dec_03_1513,verb_impression,60.01149845832779,
対応する,恥知らずの-恥ずかしがりの,0,541,541,69,0,2.789,,001,2018_Dec_03_1513,verb_impression,60.01149845832779,
親しむ,軽率な-慎重な,0,542,542,388,-1,5.517,,001,2018_Dec_03_1513,verb_impression,60.01149845832779,
発表する,軽率な-慎重な,0,543,543,1088,0,36.586,,001,2018_Dec_03_1513,verb_impression,60.01149845832779,
感じる,感じの悪い-感じの良い,0,544,544,313,0,25.072,,001,2018_Dec_03_1513,verb_impression,60.01149845832779,
目立つ,不親切な-親切な,0,545,545,919,0,17.216,,001,2018_Dec_03_1513,verb_impression,60.01149845832779,
落ち込む,沈んだ-うきうきした,0,546,546,1011,-3,136.304,,001,2018_Dec_03_1513,verb_impression,60.01149845832779,
確認する,消極的な-積極的な,0,547,547,1160,0,28.09,,001,2018_Dec_03_1513,verb_impression,60.01149845832779,
沈む,不親切な-親切な,0,548,548,1119,0,52.33,,001,2018_Dec_03_1513,verb_impression,60.01149845832779,
計画する,短気な-気長な,0,549,549,938,2,27.228,,001,2018_Dec_03_1513,verb_impression,60.01149845832779,
話しかける,生意気な-生意気でない,0,550,550,482,1,7.604,,001,2018_Dec_03_1513,verb_impression,60.01149845832779,
対応する,責任感のない-責任感のある,0,551,551,67,2,23.863,,001,2018_Dec_03_1513,verb_impression,60.01149845832779,
発言する,不親切な-親切な,0,552,552,579,0,7.027,,001,2018_Dec_03_1513,verb_impression,60.01149845832779,
頼む,自信のない-自信のある,0,553,553,137,1,6.981,,001,2018_Dec_03_1513,verb_impression,60.01149845832779,
務める,無分別な-分別のある,0,554,554,1054,2,9.671,,001,2018_Dec_03_1513,verb_impression,60.01149845832779,
困る,沈んだ-うきうきした,0,555,555,411,-2,14.933,,001,2018_Dec_03_1513,verb_impression,60.01149845832779,
貸す,無分別な-分別のある,0,556,556,174,0,10.28,,001,2018_Dec_03_1513,verb_impression,60.01149845832779,
沈む,軽率な-慎重な,0,557,557,1108,1,16.059,,001,2018_Dec_03_1513,verb_impression,60.01149845832779,
参加する,軽率な-慎重な,0,558,558,948,-1,11.362,,001,2018_Dec_03_1513,verb_impression,60.01149845832779,
出る,親しみにくい-親しみやすい,0,559,559,875,0,18.926,,001,2018_Dec_03_1513,verb_impression,60.01149845832779,
飲む,生意気な-生意気でない,0,560,560,582,-1,227.425,,001,2018_Dec_03_1513,verb_impression,60.01149845832779,
言う,沈んだ-うきうきした,0,561,561,451,0,7.867,,001,2018_Dec_03_1513,verb_impression,60.01149845832779,
行動する,無気力な-意欲的な,0,562,562,616,3,62.379,,001,2018_Dec_03_1513,verb_impression,60.01149845832779,
卑下する,無気力な-意欲的な,0,563,563,996,-2,18.841,,001,2018_Dec_03_1513,verb_impression,60.01149845832779,
取り組む,恥知らずの-恥ずかしがりの,0,564,564,709,0,31.374,,001,2018_Dec_03_1513,verb_impression,60.01149845832779,
見下す,近づきがたい-人懐っこい,0,565,565,423,-3,49.779,,001,2018_Dec_03_1513,verb_impression,60.01149845832779,
行動する,感じの悪い-感じの良い,0,566,566,613,0,39.723,,001,2018_Dec_03_1513,verb_impression,60.01149845832779,
送る,親しみにくい-親しみやすい,0,567,567,295,0,6.913,,001,2018_Dec_03_1513,verb_impression,60.01149845832779,
貸す,短気な-気長な,0,568,568,178,2,4.47,,001,2018_Dec_03_1513,verb_impression,60.01149845832779,
困る,消極的な-積極的な,0,569,569,400,-1,10.984,,001,2018_Dec_03_1513,verb_impression,60.01149845832779,
休む,短気な-気長な,0,570,570,978,2,5.92,,001,2018_Dec_03_1513,verb_impression,60.01149845832779,
相談する,生意気な-生意気でない,0,571,571,182,-1,36.723,,001,2018_Dec_03_1513,verb_impression,60.01149845832779,
考える,卑屈な-堂々とした,0,572,572,632,1,2.786,,001,2018_Dec_03_1513,verb_impression,60.01149845832779,
仕事する,無分別な-分別のある,0,573,573,794,2,12.965,,001,2018_Dec_03_1513,verb_impression,60.01149845832779,
困る,心の狭い-心の広い,0,574,574,405,-1,10.663,,001,2018_Dec_03_1513,verb_impression,60.01149845832779,
話しかける,短気な-気長な,0,575,575,498,1,65.389,,001,2018_Dec_03_1513,verb_impression,60.01149845832779,
持つ,軽率な-慎重な,0,576,576,528,0,3.957,,001,2018_Dec_03_1513,verb_impression,60.01149845832779,
連絡する,無気力な-意欲的な,0,577,577,16,2,2.599,,001,2018_Dec_03_1513,verb_impression,60.01149845832779,
行う,消極的な-積極的な,0,578,578,660,3,1.985,,001,2018_Dec_03_1513,verb_impression,60.01149845832779,
引き受ける,軽率な-慎重な,0,579,579,208,-1,2.728,,001,2018_Dec_03_1513,verb_impression,60.01149845832779,
行う,近づきがたい-人懐っこい,0,580,580,663,1,2.566,,001,2018_Dec_03_1513,verb_impression,60.01149845832779,
話しかける,無分別な-分別のある,0,581,581,494,0,2.183,,001,2018_Dec_03_1513,verb_impression,60.01149845832779,
行く,消極的な-積極的な,0,582,582,500,2,2.435,,001,2018_Dec_03_1513,verb_impression,60.01149845832779,
卑下する,親しみにくい-親しみやすい,0,583,583,995,-3,3.663,,001,2018_Dec_03_1513,verb_impression,60.01149845832779,
休む,非社交的な-社交的な,0,584,584,966,-1,3.285,,001,2018_Dec_03_1513,verb_impression,60.01149845832779,
頼む,軽率な-慎重な,0,585,585,128,0,2.996,,001,2018_Dec_03_1513,verb_impression,60.01149845832779,
感じる,近づきがたい-人懐っこい,0,586,586,303,0,2.346,,001,2018_Dec_03_1513,verb_impression,60.01149845832779,
感じる,憎らしい-可愛らしい,0,587,587,304,0,3.299,,001,2018_Dec_03_1513,verb_impression,60.01149845832779,
気に入る,無分別な-分別のある,0,588,588,34,0,3.048,,001,2018_Dec_03_1513,verb_impression,60.01149845832779,
教える,自信のない-自信のある,0,589,589,337,1,4.316,,001,2018_Dec_03_1513,verb_impression,60.01149845832779,
聞く,無気力な-意欲的な,0,590,590,116,2,2.3,,001,2018_Dec_03_1513,verb_impression,60.01149845832779,
進む,憎らしい-可愛らしい,0,591,591,724,1,3.783,,001,2018_Dec_03_1513,verb_impression,60.01149845832779,
話す,人のわるい-人の良い,0,592,592,341,2,2.847,,001,2018_Dec_03_1513,verb_impression,60.01149845832779,
交流する,軽薄な-重厚な,0,593,593,650,-1,2.432,,001,2018_Dec_03_1513,verb_impression,60.01149845832779,
行動する,沈んだ-うきうきした,0,594,594,611,0,4.633,,001,2018_Dec_03_1513,verb_impression,60.01149845832779,
飲む,消極的な-積極的な,0,595,595,580,1,6.631,,001,2018_Dec_03_1513,verb_impression,60.01149845832779,
進む,感じの悪い-感じの良い,0,596,596,733,1,2.801,,001,2018_Dec_03_1513,verb_impression,60.01149845832779,
話す,恥知らずの-恥ずかしがりの,0,597,597,349,-1,2.844,,001,2018_Dec_03_1513,verb_impression,60.01149845832779,
連絡する,近づきがたい-人懐っこい,0,598,598,3,2,227.071,,001,2018_Dec_03_1513,verb_impression,60.01149845832779,
送る,人のわるい-人の良い,0,599,599,281,0,1.882,,001,2018_Dec_03_1513,verb_impression,60.01149845832779,
送る,軽率な-慎重な,0,600,600,288,0,2.788,,001,2018_Dec_03_1513,verb_impression,60.01149845832779,
計画する,生意気な-生意気でない,0,601,601,922,0,2.111,,001,2018_Dec_03_1513,verb_impression,60.01149845832779,
合う,人のわるい-人の良い,0,602,602,221,1,8.551,,001,2018_Dec_03_1513,verb_impression,60.01149845832779,
決める,責任感のない-責任感のある,0,603,603,847,2,2.911,,001,2018_Dec_03_1513,verb_impression,60.01149845832779,
務める,短気な-気長な,0,604,604,1058,1,3.432,,001,2018_Dec_03_1513,verb_impression,60.01149845832779,
歌う,消極的な-積極的な,0,605,605,1120,2,3.689,,001,2018_Dec_03_1513,verb_impression,60.01149845832779,
感じる,心の狭い-心の広い,0,606,606,305,0,7.933,,001,2018_Dec_03_1513,verb_impression,60.01149845832779,
歌う,短気な-気長な,0,607,607,1138,0,1.916,,001,2018_Dec_03_1513,verb_impression,60.01149845832779,
近寄る,不親切な-親切な,0,608,608,899,1,3.662,,001,2018_Dec_03_1513,verb_impression,60.01149845832779,
合う,不親切な-親切な,0,609,609,239,0,4.073,,001,2018_Dec_03_1513,verb_impression,60.01149845832779,
言う,責任感のない-責任感のある,0,610,610,447,0,2.243,,001,2018_Dec_03_1513,verb_impression,60.01149845832779,
親しむ,沈んだ-うきうきした,0,611,611,391,2,3.645,,001,2018_Dec_03_1513,verb_impression,60.01149845832779,
持つ,人のわるい-人の良い,0,612,612,521,0,4.295,,001,2018_Dec_03_1513,verb_impression,60.01149845832779,
入る,心の狭い-心の広い,0,613,613,685,0,3.523,,001,2018_Dec_03_1513,verb_impression,60.01149845832779,
発言する,生意気な-生意気でない,0,614,614,562,0,2.194,,001,2018_Dec_03_1513,verb_impression,60.01149845832779,
入る,憎らしい-可愛らしい,0,615,615,684,0,1.395,,001,2018_Dec_03_1513,verb_impression,60.01149845832779,
決める,自信のない-自信のある,0,616,616,857,2,3.796,,001,2018_Dec_03_1513,verb_impression,60.01149845832779,
心配する,軽率な-慎重な,0,617,617,148,1,4.83,,001,2018_Dec_03_1513,verb_impression,60.01149845832779,
合う,消極的な-積極的な,0,618,618,220,0,1.851,,001,2018_Dec_03_1513,verb_impression,60.01149845832779,
仕事する,恥知らずの-恥ずかしがりの,0,619,619,789,0,2.161,,001,2018_Dec_03_1513,verb_impression,60.01149845832779,
近寄る,親しみにくい-親しみやすい,0,620,620,895,2,2.627,,001,2018_Dec_03_1513,verb_impression,60.01149845832779,
卑下する,責任感のない-責任感のある,0,621,621,987,0,1.978,,001,2018_Dec_03_1513,verb_impression,60.01149845832779,
助ける,憎らしい-可愛らしい,0,622,622,464,1,2.484,,001,2018_Dec_03_1513,verb_impression,60.01149845832779,
行動する,無分別な-分別のある,0,623,623,614,1,20.579,,001,2018_Dec_03_1513,verb_impression,60.01149845832779,
与える,沈んだ-うきうきした,0,624,624,1151,1,3.669,,001,2018_Dec_03_1513,verb_impression,60.01149845832779,
卑下する,心の狭い-心の広い,0,625,625,985,-3,2.795,,001,2018_Dec_03_1513,verb_impression,60.01149845832779,
立候補する,不親切な-親切な,0,626,626,1079,1,3.548,,001,2018_Dec_03_1513,verb_impression,60.01149845832779,
発表する,軽薄な-重厚な,0,627,627,1090,0,2.45,,001,2018_Dec_03_1513,verb_impression,60.01149845832779,
引き受ける,卑屈な-堂々とした,0,628,628,212,1,15.227,,001,2018_Dec_03_1513,verb_impression,60.01149845832779,
教える,非社交的な-社交的な,0,629,629,326,2,7.623,,001,2018_Dec_03_1513,verb_impression,60.01149845832779,
務める,近づきがたい-人懐っこい,0,630,630,1043,2,7.101,,001,2018_Dec_03_1513,verb_impression,60.01149845832779,
務める,非社交的な-社交的な,0,631,631,1046,2,2.332,,001,2018_Dec_03_1513,verb_impression,60.01149845832779,
立候補する,卑屈な-堂々とした,0,632,632,1072,2,2.308,,001,2018_Dec_03_1513,verb_impression,60.01149845832779,
買う,感じの悪い-感じの良い,0,633,633,813,0,2.413,,001,2018_Dec_03_1513,verb_impression,60.01149845832779,
助ける,恥知らずの-恥ずかしがりの,0,634,634,469,0,2.02,,001,2018_Dec_03_1513,verb_impression,60.01149845832779,
発言する,人のわるい-人の良い,0,635,635,561,0,3.997,,001,2018_Dec_03_1513,verb_impression,60.01149845832779,
見下す,軽率な-慎重な,0,636,636,428,0,3.584,,001,2018_Dec_03_1513,verb_impression,60.01149845832779,
話す,自信のない-自信のある,0,637,637,357,2,3.63,,001,2018_Dec_03_1513,verb_impression,60.01149845832779,
務める,恥知らずの-恥ずかしがりの,0,638,638,1049,0,8.196,,001,2018_Dec_03_1513,verb_impression,60.01149845832779,
務める,無気力な-意欲的な,0,639,639,1056,3,2.555,,001,2018_Dec_03_1513,verb_impression,60.01149845832779,
考える,親しみにくい-親しみやすい,0,640,640,635,0,2.572,,001,2018_Dec_03_1513,verb_impression,60.01149845832779,
交流する,人のわるい-人の良い,0,641,641,641,2,5.713,,001,2018_Dec_03_1513,verb_impression,60.01149845832779,
相談する,憎らしい-可愛らしい,0,642,642,184,1,3.38,,001,2018_Dec_03_1513,verb_impression,60.01149845832779,
落ち込む,無分別な-分別のある,0,643,643,1014,1,2.83,,001,2018_Dec_03_1513,verb_impression,60.01149845832779,
相談する,親しみにくい-親しみやすい,0,644,644,195,1,2.855,,001,2018_Dec_03_1513,verb_impression,60.01149845832779,
教える,責任感のない-責任感のある,0,645,645,327,2,2.444,,001,2018_Dec_03_1513,verb_impression,60.01149845832779,
交流する,心の狭い-心の広い,0,646,646,645,3,2.068,,001,2018_Dec_03_1513,verb_impression,60.01149845832779,
取り組む,心の狭い-心の広い,0,647,647,705,1,10.619,,001,2018_Dec_03_1513,verb_impression,60.01149845832779,
許す,親しみにくい-親しみやすい,0,648,648,275,3,1.99,,001,2018_Dec_03_1513,verb_impression,60.01149845832779,
取り組む,憎らしい-可愛らしい,0,649,649,704,0,2.378,,001,2018_Dec_03_1513,verb_impression,60.01149845832779,
落ち込む,卑屈な-堂々とした,0,650,650,1012,-2,2.765,,001,2018_Dec_03_1513,verb_impression,60.01149845832779,
楽しむ,恥知らずの-恥ずかしがりの,0,651,651,769,0,3.474,,001,2018_Dec_03_1513,verb_impression,60.01149845832779,
進む,短気な-気長な,0,652,652,738,0,2.016,,001,2018_Dec_03_1513,verb_impression,60.01149845832779,
進む,消極的な-積極的な,0,653,653,720,3,3.139,,001,2018_Dec_03_1513,verb_impression,60.01149845832779,
飲む,人のわるい-人の良い,0,654,654,581,0,2.593,,001,2018_Dec_03_1513,verb_impression,60.01149845832779,
近づく,消極的な-積極的な,0,655,655,1020,3,4.169,,001,2018_Dec_03_1513,verb_impression,60.01149845832779,
聞く,短気な-気長な,0,656,656,118,0,3.148,,001,2018_Dec_03_1513,verb_impression,60.01149845832779,
沈む,沈んだ-うきうきした,0,657,657,1111,-3,2.615,,001,2018_Dec_03_1513,verb_impression,60.01149845832779,
聞く,自信のない-自信のある,0,658,658,117,0,3.795,,001,2018_Dec_03_1513,verb_impression,60.01149845832779,
親しむ,無分別な-分別のある,0,659,659,394,0,2.715,,001,2018_Dec_03_1513,verb_impression,60.01149845832779,
送る,生意気な-生意気でない,0,660,660,282,0,1.877,,001,2018_Dec_03_1513,verb_impression,60.01149845832779,
親しむ,責任感のない-責任感のある,0,661,661,387,0,2.259,,001,2018_Dec_03_1513,verb_impression,60.01149845832779,
行く,無気力な-意欲的な,0,662,662,516,3,2.6,,001,2018_Dec_03_1513,verb_impression,60.01149845832779,
話しかける,無気力な-意欲的な,0,663,663,496,3,2.872,,001,2018_Dec_03_1513,verb_impression,60.01149845832779,
行う,自信のない-自信のある,0,664,664,677,2,2.148,,001,2018_Dec_03_1513,verb_impression,60.01149845832779,
任す,短気な-気長な,0,665,665,1198,2,2.632,,001,2018_Dec_03_1513,verb_impression,60.01149845832779,
教える,近づきがたい-人懐っこい,0,666,666,323,1,2.249,,001,2018_Dec_03_1513,verb_impression,60.01149845832779,
行く,感じの悪い-感じの良い,0,667,667,513,0,1.997,,001,2018_Dec_03_1513,verb_impression,60.01149845832779,
進む,自信のない-自信のある,0,668,668,737,2,2.696,,001,2018_Dec_03_1513,verb_impression,60.01149845832779,
飲む,卑屈な-堂々とした,0,669,669,592,0,1.632,,001,2018_Dec_03_1513,verb_impression,60.01149845832779,
出る,消極的な-積極的な,0,670,670,860,3,5.95,,001,2018_Dec_03_1513,verb_impression,60.01149845832779,
心配する,人のわるい-人の良い,0,671,671,141,2,3.009,,001,2018_Dec_03_1513,verb_impression,60.01149845832779,
話しかける,軽率な-慎重な,0,672,672,488,0,7.429,,001,2018_Dec_03_1513,verb_impression,60.01149845832779,
楽しむ,近づきがたい-人懐っこい,0,673,673,763,2,2.547,,001,2018_Dec_03_1513,verb_impression,60.01149845832779,
参加する,責任感のない-責任感のある,0,674,674,947,1,3.708,,001,2018_Dec_03_1513,verb_impression,60.01149845832779,
接する,親しみにくい-親しみやすい,0,675,675,55,3,2.094,,001,2018_Dec_03_1513,verb_impression,60.01149845832779,
決める,軽率な-慎重な,0,676,676,848,1,2.502,,001,2018_Dec_03_1513,verb_impression,60.01149845832779,
卑下する,憎らしい-可愛らしい,0,677,677,984,-2,2.274,,001,2018_Dec_03_1513,verb_impression,60.01149845832779,
断る,恥知らずの-恥ずかしがりの,0,678,678,89,2,3.393,,001,2018_Dec_03_1513,verb_impression,60.01149845832779,
断る,卑屈な-堂々とした,0,679,679,92,0,3.817,,001,2018_Dec_03_1513,verb_impression,60.01149845832779,
目立つ,無気力な-意欲的な,0,680,680,916,2,2.583,,001,2018_Dec_03_1513,verb_impression,60.01149845832779,
発言する,責任感のない-責任感のある,0,681,681,567,0,1.956,,001,2018_Dec_03_1513,verb_impression,60.01149845832779,
任す,心の狭い-心の広い,0,682,682,1185,3,2.96,,001,2018_Dec_03_1513,verb_impression,60.01149845832779,
引き受ける,非社交的な-社交的な,0,683,683,206,3,2.378,,001,2018_Dec_03_1513,verb_impression,60.01149845832779,
見下す,不親切な-親切な,0,684,684,439,-3,2.564,,001,2018_Dec_03_1513,verb_impression,60.01149845832779,
話しかける,人のわるい-人の良い,0,685,685,481,2,4.141,,001,2018_Dec_03_1513,verb_impression,60.01149845832779,
行く,親しみにくい-親しみやすい,0,686,686,515,2,2.397,,001,2018_Dec_03_1513,verb_impression,60.01149845832779,
考える,軽薄な-重厚な,0,687,687,630,3,2.279,,001,2018_Dec_03_1513,verb_impression,60.01149845832779,
近寄る,自信のない-自信のある,0,688,688,897,2,2.461,,001,2018_Dec_03_1513,verb_impression,60.01149845832779,
出る,感じの悪い-感じの良い,0,689,689,873,0,24.587,,001,2018_Dec_03_1513,verb_impression,60.01149845832779,
心配する,生意気な-生意気でない,0,690,690,142,0,14.244,,001,2018_Dec_03_1513,verb_impression,60.01149845832779,
歌う,近づきがたい-人懐っこい,0,691,691,1123,2,3.173,,001,2018_Dec_03_1513,verb_impression,60.01149845832779,
話しかける,責任感のない-責任感のある,0,692,692,487,1,2.079,,001,2018_Dec_03_1513,verb_impression,60.01149845832779,
近寄る,恥知らずの-恥ずかしがりの,0,693,693,889,-1,4.842,,001,2018_Dec_03_1513,verb_impression,60.01149845832779,
貸す,責任感のない-責任感のある,0,694,694,167,0,4.691,,001,2018_Dec_03_1513,verb_impression,60.01149845832779,
与える,親しみにくい-親しみやすい,0,695,695,1155,3,2.633,,001,2018_Dec_03_1513,verb_impression,60.01149845832779,
連絡する,責任感のない-責任感のある,0,696,696,7,2,12.539,,001,2018_Dec_03_1513,verb_impression,60.01149845832779,
送る,軽薄な-重厚な,0,697,697,290,0,3.097,,001,2018_Dec_03_1513,verb_impression,60.01149845832779,
行く,憎らしい-可愛らしい,0,698,698,504,0,1.911,,001,2018_Dec_03_1513,verb_impression,60.01149845832779,
感じる,生意気な-生意気でない,0,699,699,302,0,4.879,,001,2018_Dec_03_1513,verb_impression,60.01149845832779,
教える,生意気な-生意気でない,0,700,700,322,0,2.841,,001,2018_Dec_03_1513,verb_impression,60.01149845832779,
連絡する,沈んだ-うきうきした,0,701,701,11,1,2.81,,001,2018_Dec_03_1513,verb_impression,60.01149845832779,
活動する,人のわるい-人の良い,0,702,702,821,0,5.26,,001,2018_Dec_03_1513,verb_impression,60.01149845832779,
行う,沈んだ-うきうきした,0,703,703,671,1,3.523,,001,2018_Dec_03_1513,verb_impression,60.01149845832779,
引き受ける,近づきがたい-人懐っこい,0,704,704,203,3,2.407,,001,2018_Dec_03_1513,verb_impression,60.01149845832779,
連絡する,人のわるい-人の良い,0,705,705,1,2,2.628,,001,2018_Dec_03_1513,verb_impression,60.01149845832779,
近寄る,短気な-気長な,0,706,706,898,0,2.481,,001,2018_Dec_03_1513,verb_impression,60.01149845832779,
与える,憎らしい-可愛らしい,0,707,707,1144,3,2.163,,001,2018_Dec_03_1513,verb_impression,60.01149845832779,
仕事する,非社交的な-社交的な,0,708,708,786,0,2.931,,001,2018_Dec_03_1513,verb_impression,60.01149845832779,
確認する,生意気な-生意気でない,0,709,709,1162,0,1.76,,001,2018_Dec_03_1513,verb_impression,60.01149845832779,
卑下する,軽薄な-重厚な,0,710,710,990,0,2.114,,001,2018_Dec_03_1513,verb_impression,60.01149845832779,
評価する,生意気な-生意気でない,0,711,711,542,-1,3.311,,001,2018_Dec_03_1513,verb_impression,60.01149845832779,
務める,軽薄な-重厚な,0,712,712,1050,3,2.731,,001,2018_Dec_03_1513,verb_impression,60.01149845832779,
計画する,恥知らずの-恥ずかしがりの,0,713,713,929,0,2.89,,001,2018_Dec_03_1513,verb_impression,60.01149845832779,
考える,人のわるい-人の良い,0,714,714,621,0,2.263,,001,2018_Dec_03_1513,verb_impression,60.01149845832779,
親しむ,感じの悪い-感じの良い,0,715,715,393,3,3.526,,001,2018_Dec_03_1513,verb_impression,60.01149845832779,
心配する,憎らしい-可愛らしい,0,716,716,144,0,1.994,,001,2018_Dec_03_1513,verb_impression,60.01149845832779,
考える,短気な-気長な,0,717,717,638,2,3.349,,001,2018_Dec_03_1513,verb_impression,60.01149845832779,
取り組む,短気な-気長な,0,718,718,718,0,2.376,,001,2018_Dec_03_1513,verb_impression,60.01149845832779,
言う,卑屈な-堂々とした,0,719,719,452,0,1.531,,001,2018_Dec_03_1513,verb_impression,60.01149845832779,
近寄る,責任感のない-責任感のある,0,720,720,887,0,2.096,,001,2018_Dec_03_1513,verb_impression,60.01149845832779,
入る,無気力な-意欲的な,0,721,721,696,2,3.286,,001,2018_Dec_03_1513,verb_impression,60.01149845832779,
教える,心の狭い-心の広い,0,722,722,325,2,3.58,,001,2018_Dec_03_1513,verb_impression,60.01149845832779,
交流する,無分別な-分別のある,0,723,723,654,1,3.45,,001,2018_Dec_03_1513,verb_impression,60.01149845832779,
仕事する,感じの悪い-感じの良い,0,724,724,793,0,2.048,,001,2018_Dec_03_1513,verb_impression,60.01149845832779,
困る,恥知らずの-恥ずかしがりの,0,725,725,409,0,2.728,,001,2018_Dec_03_1513,verb_impression,60.01149845832779,
断る,軽率な-慎重な,0,726,726,88,0,2.458,,001,2018_Dec_03_1513,verb_impression,60.01149845832779,
気に入る,恥知らずの-恥ずかしがりの,0,727,727,29,0,2.51,,001,2018_Dec_03_1513,verb_impression,60.01149845832779,
見下す,親しみにくい-親しみやすい,0,728,728,435,-3,3.417,,001,2018_Dec_03_1513,verb_impression,60.01149845832779,
親しむ,人のわるい-人の良い,0,729,729,381,3,2.445,,001,2018_Dec_03_1513,verb_impression,60.01149845832779,
引き受ける,沈んだ-うきうきした,0,730,730,211,0,10.246,,001,2018_Dec_03_1513,verb_impression,60.01149845832779,
目立つ,非社交的な-社交的な,0,731,731,906,3,2.28,,001,2018_Dec_03_1513,verb_impression,60.01149845832779,
相談する,卑屈な-堂々とした,0,732,732,192,-1,4.86,,001,2018_Dec_03_1513,verb_impression,60.01149845832779,
近寄る,軽率な-慎重な,0,733,733,888,0,3.396,,001,2018_Dec_03_1513,verb_impression,60.01149845832779,
発表する,親しみにくい-親しみやすい,0,734,734,1095,1,23.31,,001,2018_Dec_03_1513,verb_impression,60.01149845832779,
立候補する,軽薄な-重厚な,0,735,735,1070,0,3.265,,001,2018_Dec_03_1513,verb_impression,60.01149845832779,
歌う,心の狭い-心の広い,0,736,736,1125,0,2.144,,001,2018_Dec_03_1513,verb_impression,60.01149845832779,
買う,生意気な-生意気でない,0,737,737,802,0,1.931,,001,2018_Dec_03_1513,verb_impression,60.01149845832779,
買う,軽率な-慎重な,0,738,738,808,0,2.017,,001,2018_Dec_03_1513,verb_impression,60.01149845832779,
務める,心の狭い-心の広い,0,739,739,1045,0,3.764,,001,2018_Dec_03_1513,verb_impression,60.01149845832779,
歌う,卑屈な-堂々とした,0,740,740,1132,2,2.283,,001,2018_Dec_03_1513,verb_impression,60.01149845832779,
気に入る,卑屈な-堂々とした,0,741,741,32,1,2.368,,001,2018_Dec_03_1513,verb_impression,60.01149845832779,
評価する,無分別な-分別のある,0,742,742,554,1,2.065,,001,2018_Dec_03_1513,verb_impression,60.01149845832779,
取り組む,消極的な-積極的な,0,743,743,700,2,2.784,,001,2018_Dec_03_1513,verb_impression,60.01149845832779,
親しむ,非社交的な-社交的な,0,744,744,386,1,2.41,,001,2018_Dec_03_1513,verb_impression,60.01149845832779,
歌う,責任感のない-責任感のある,0,745,745,1127,0,2.012,,001,2018_Dec_03_1513,verb_impression,60.01149845832779,
受け入れる,消極的な-積極的な,0,746,746,240,0,4.718,,001,2018_Dec_03_1513,verb_impression,60.01149845832779,
相談する,非社交的な-社交的な,0,747,747,186,1,2.512,,001,2018_Dec_03_1513,verb_impression,60.01149845832779,
行う,憎らしい-可愛らしい,0,748,748,664,0,2.549,,001,2018_Dec_03_1513,verb_impression,60.01149845832779,
頼む,非社交的な-社交的な,0,749,749,126,1,3.044,,001,2018_Dec_03_1513,verb_impression,60.01149845832779,
旅行する,軽薄な-重厚な,0,750,750,750,0,1.863,,001,2018_Dec_03_1513,verb_impression,60.01149845832779,
旅行する,近づきがたい-人懐っこい,0,751,751,743,0,2.868,,001,2018_Dec_03_1513,verb_impression,60.01149845832779,
許す,恥知らずの-恥ずかしがりの,0,752,752,269,0,2.171,,001,2018_Dec_03_1513,verb_impression,60.01149845832779,
怒る,生意気な-生意気でない,0,753,753,362,0,5.75,,001,2018_Dec_03_1513,verb_impression,60.01149845832779,
発表する,人のわるい-人の良い,0,754,754,1081,0,3.513,,001,2018_Dec_03_1513,verb_impression,60.01149845832779,
行く,恥知らずの-恥ずかしがりの,0,755,755,509,-1,3.111,,001,2018_Dec_03_1513,verb_impression,60.01149845832779,
目立つ,消極的な-積極的な,0,756,756,900,3,3.983,,001,2018_Dec_03_1513,verb_impression,60.01149845832779,
行動する,責任感のない-責任感のある,0,757,757,607,0,2.829,,001,2018_Dec_03_1513,verb_impression,60.01149845832779,
落ち込む,責任感のない-責任感のある,0,758,758,1007,1,2.484,,001,2018_Dec_03_1513,verb_impression,60.01149845832779,
対応する,不親切な-親切な,0,759,759,79,2,4.202,,001,2018_Dec_03_1513,verb_impression,60.01149845832779,
落ち込む,消極的な-積極的な,0,760,760,1000,-1,2.549,,001,2018_Dec_03_1513,verb_impression,60.01149845832779,
歌う,恥知らずの-恥ずかしがりの,0,761,761,1129,-1,3.441,,001,2018_Dec_03_1513,verb_impression,60.01149845832779,
心配する,感じの悪い-感じの良い,0,762,762,153,0,2.414,,001,2018_Dec_03_1513,verb_impression,60.01149845832779,
見下す,心の狭い-心の広い,0,763,763,425,-3,2.727,,001,2018_Dec_03_1513,verb_impression,60.01149845832779,
旅行する,感じの悪い-感じの良い,0,764,764,753,0,4.382,,001,2018_Dec_03_1513,verb_impression,60.01149845832779,
交流する,非社交的な-社交的な,0,765,765,646,2,3.765,,001,2018_Dec_03_1513,verb_impression,60.01149845832779,
沈む,感じの悪い-感じの良い,0,766,766,1113,0,2.844,,001,2018_Dec_03_1513,verb_impression,60.01149845832779,
沈む,近づきがたい-人懐っこい,0,767,767,1103,-1,2.034,,001,2018_Dec_03_1513,verb_impression,60.01149845832779,
買う,親しみにくい-親しみやすい,0,768,768,815,0,3.446,,001,2018_Dec_03_1513,verb_impression,60.01149845832779,
務める,不親切な-親切な,0,769,769,1059,0,1.828,,001,2018_Dec_03_1513,verb_impression,60.01149845832779,
連絡する,非社交的な-社交的な,0,770,770,6,1,4.016,,001,2018_Dec_03_1513,verb_impression,60.01149845832779,
発言する,心の狭い-心の広い,0,771,771,565,0,6.163,,001,2018_Dec_03_1513,verb_impression,60.01149845832779,
送る,不親切な-親切な,0,772,772,299,0,2.775,,001,2018_Dec_03_1513,verb_impression,60.01149845832779,
引き受ける,責任感のない-責任感のある,0,773,773,207,2,2.31,,001,2018_Dec_03_1513,verb_impression,60.01149845832779,
引き受ける,無分別な-分別のある,0,774,774,214,0,2.931,,001,2018_Dec_03_1513,verb_impression,60.01149845832779,
近づく,近づきがたい-人懐っこい,0,775,775,1023,2,2.718,,001,2018_Dec_03_1513,verb_impression,60.01149845832779,
聞く,恥知らずの-恥ずかしがりの,0,776,776,109,0,1.759,,001,2018_Dec_03_1513,verb_impression,60.01149845832779,
旅行する,卑屈な-堂々とした,0,777,777,752,1,3.058,,001,2018_Dec_03_1513,verb_impression,60.01149845832779,
交流する,無気力な-意欲的な,0,778,778,656,3,9.668,,001,2018_Dec_03_1513,verb_impression,60.01149845832779,
立候補する,短気な-気長な,0,779,779,1078,0,5.175,,001,2018_Dec_03_1513,verb_impression,60.01149845832779,
卑下する,感じの悪い-感じの良い,0,780,780,993,-2,7.626,,001,2018_Dec_03_1513,verb_impression,60.01149845832779,
確認する,責任感のない-責任感のある,0,781,781,1167,2,2.165,,001,2018_Dec_03_1513,verb_impression,60.01149845832779,
気に入る,責任感のない-責任感のある,0,782,782,27,0,1.87,,001,2018_Dec_03_1513,verb_impression,60.01149845832779,
接する,沈んだ-うきうきした,0,783,783,51,0,4.537,,001,2018_Dec_03_1513,verb_impression,60.01149845832779,
断る,自信のない-自信のある,0,784,784,97,-1,3.017,,001,2018_Dec_03_1513,verb_impression,60.01149845832779,
近寄る,無分別な-分別のある,0,785,785,894,0,2.119,,001,2018_Dec_03_1513,verb_impression,60.01149845832779,
交流する,沈んだ-うきうきした,0,786,786,651,1,1.912,,001,2018_Dec_03_1513,verb_impression,60.01149845832779,
交流する,消極的な-積極的な,0,787,787,640,3,2.839,,001,2018_Dec_03_1513,verb_impression,60.01149845832779,
貸す,消極的な-積極的な,0,788,788,160,0,13.522,,001,2018_Dec_03_1513,verb_impression,60.01149845832779,
行う,軽薄な-重厚な,0,789,789,670,0,1.534,,001,2018_Dec_03_1513,verb_impression,60.01149845832779,
合う,責任感のない-責任感のある,0,790,790,227,0,1.915,,001,2018_Dec_03_1513,verb_impression,60.01149845832779,
話しかける,心の狭い-心の広い,0,791,791,485,1,2.631,,001,2018_Dec_03_1513,verb_impression,60.01149845832779,
合う,短気な-気長な,0,792,792,238,0,984.445,,001,2018_Dec_03_1513,verb_impression,60.01149845832779,
出る,軽薄な-重厚な,0,793,793,870,0,3.165,,001,2018_Dec_03_1513,verb_impression,60.01149845832779,
聞く,心の狭い-心の広い,0,794,794,105,2,1.997,,001,2018_Dec_03_1513,verb_impression,60.01149845832779,
受け入れる,卑屈な-堂々とした,0,795,795,252,2,2.981,,001,2018_Dec_03_1513,verb_impression,60.01149845832779,
許す,心の狭い-心の広い,0,796,796,265,3,2.409,,001,2018_Dec_03_1513,verb_impression,60.01149845832779,
計画する,卑屈な-堂々とした,0,797,797,932,0,3.429,,001,2018_Dec_03_1513,verb_impression,60.01149845832779,
受け入れる,軽率な-慎重な,0,798,798,248,0,2.346,,001,2018_Dec_03_1513,verb_impression,60.01149845832779,
助ける,人のわるい-人の良い,0,799,799,461,3,2.516,,001,2018_Dec_03_1513,verb_impression,60.01149845832779,
活動する,近づきがたい-人懐っこい,0,800,800,823,2,5.634,,001,2018_Dec_03_1513,verb_impression,60.01149845832779,
怒る,沈んだ-うきうきした,0,801,801,371,0,2.78,,001,2018_Dec_03_1513,verb_impression,60.01149845832779,
近寄る,感じの悪い-感じの良い,0,802,802,893,1,2.196,,001,2018_Dec_03_1513,verb_impression,60.01149845832779,
任す,生意気な-生意気でない,0,803,803,1182,0,3.483,,001,2018_Dec_03_1513,verb_impression,60.01149845832779,
立候補する,無分別な-分別のある,0,804,804,1074,0,2.583,,001,2018_Dec_03_1513,verb_impression,60.01149845832779,
沈む,生意気な-生意気でない,0,805,805,1102,0,1.846,,001,2018_Dec_03_1513,verb_impression,60.01149845832779,
感じる,沈んだ-うきうきした,0,806,806,311,0,55.842,,001,2018_Dec_03_1513,verb_impression,60.01149845832779,
送る,心の狭い-心の広い,0,807,807,285,0,3.151,,001,2018_Dec_03_1513,verb_impression,60.01149845832779,
発言する,感じの悪い-感じの良い,0,808,808,573,0,3.262,,001,2018_Dec_03_1513,verb_impression,60.01149845832779,
困る,無分別な-分別のある,0,809,809,414,0,1.878,,001,2018_Dec_03_1513,verb_impression,60.01149845832779,
助ける,卑屈な-堂々とした,0,810,810,472,1,4.467,,001,2018_Dec_03_1513,verb_impression,60.01149845832779,
立候補する,沈んだ-うきうきした,0,811,811,1071,1,3.266,,001,2018_Dec_03_1513,verb_impression,60.01149845832779,
助ける,近づきがたい-人懐っこい,0,812,812,463,2,2.14,,001,2018_Dec_03_1513,verb_impression,60.01149845832779,
連絡する,自信のない-自信のある,0,813,813,17,0,20.387,,001,2018_Dec_03_1513,verb_impression,60.01149845832779,
発言する,短気な-気長な,0,814,814,578,0,38.2,,001,2018_Dec_03_1513,verb_impression,60.01149845832779,
持つ,自信のない-自信のある,0,815,815,537,0,2.367,,001,2018_Dec_03_1513,verb_impression,60.01149845832779,
任す,軽率な-慎重な,0,816,816,1188,0,3.49,,001,2018_Dec_03_1513,verb_impression,60.01149845832779,
旅行する,親しみにくい-親しみやすい,0,817,817,755,1,3.088,,001,2018_Dec_03_1513,verb_impression,60.01149845832779,
決める,無分別な-分別のある,0,818,818,854,1,3.644,,001,2018_Dec_03_1513,verb_impression,60.01149845832779,
頼む,恥知らずの-恥ずかしがりの,0,819,819,129,0,4.833,,001,2018_Dec_03_1513,verb_impression,60.01149845832779,
与える,軽薄な-重厚な,0,820,820,1150,0,2.216,,001,2018_Dec_03_1513,verb_impression,60.01149845832779,
行う,責任感のない-責任感のある,0,821,821,667,0,3.531,,001,2018_Dec_03_1513,verb_impression,60.01149845832779,
評価する,人のわるい-人の良い,0,822,822,541,0,1.944,,001,2018_Dec_03_1513,verb_impression,60.01149845832779,
頼む,不親切な-親切な,0,823,823,139,0,3.777,,001,2018_Dec_03_1513,verb_impression,60.01149845832779,
考える,無気力な-意欲的な,0,824,824,636,0,2.418,,001,2018_Dec_03_1513,verb_impression,60.01149845832779,
近寄る,心の狭い-心の広い,0,825,825,885,1,2.298,,001,2018_Dec_03_1513,verb_impression,60.01149845832779,
行動する,親しみにくい-親しみやすい,0,826,826,615,1,2.559,,001,2018_Dec_03_1513,verb_impression,60.01149845832779,
与える,非社交的な-社交的な,0,827,827,1146,2,2.414,,001,2018_Dec_03_1513,verb_impression,60.01149845832779,
活動する,短気な-気長な,0,828,828,838,0,3.781,,001,2018_Dec_03_1513,verb_impression,60.01149845832779,
計画する,無分別な-分別のある,0,829,829,934,0,2.578,,001,2018_Dec_03_1513,verb_impression,60.01149845832779,
務める,感じの悪い-感じの良い,0,830,830,1053,1,6.88,,001,2018_Dec_03_1513,verb_impression,60.01149845832779,
近づく,恥知らずの-恥ずかしがりの,0,831,831,1029,-1,3.16,,001,2018_Dec_03_1513,verb_impression,60.01149845832779,
合う,軽薄な-重厚な,0,832,832,230,0,1.351,,001,2018_Dec_03_1513,verb_impression,60.01149845832779,
任す,沈んだ-うきうきした,0,833,833,1191,0,2.037,,001,2018_Dec_03_1513,verb_impression,60.01149845832779,
行動する,心の狭い-心の広い,0,834,834,605,0,1.699,,001,2018_Dec_03_1513,verb_impression,60.01149845832779,
合う,卑屈な-堂々とした,0,835,835,232,0,2.768,,001,2018_Dec_03_1513,verb_impression,60.01149845832779,
交流する,近づきがたい-人懐っこい,0,836,836,643,2,4.298,,001,2018_Dec_03_1513,verb_impression,60.01149845832779,
落ち込む,心の狭い-心の広い,0,837,837,1005,0,2.45,,001,2018_Dec_03_1513,verb_impression,60.01149845832779,
近づく,人のわるい-人の良い,0,838,838,1021,1,3.995,,001,2018_Dec_03_1513,verb_impression,60.01149845832779,
参加する,親しみにくい-親しみやすい,0,839,839,955,1,9.515,,001,2018_Dec_03_1513,verb_impression,60.01149845832779,
参加する,生意気な-生意気でない,0,840,840,942,0,2.118,,001,2018_Dec_03_1513,verb_impression,60.01149845832779,
貸す,生意気な-生意気でない,0,841,841,162,0,3.058,,001,2018_Dec_03_1513,verb_impression,60.01149845832779,
旅行する,無気力な-意欲的な,0,842,842,756,1,7.567,,001,2018_Dec_03_1513,verb_impression,60.01149845832779,
活動する,感じの悪い-感じの良い,0,843,843,833,0,2.63,,001,2018_Dec_03_1513,verb_impression,60.01149845832779,
見下す,消極的な-積極的な,0,844,844,420,0,2.152,,001,2018_Dec_03_1513,verb_impression,60.01149845832779,
怒る,自信のない-自信のある,0,845,845,377,0,2.264,,001,2018_Dec_03_1513,verb_impression,60.01149845832779,
相談する,不親切な-親切な,0,846,846,199,0,3.43,,001,2018_Dec_03_1513,verb_impression,60.01149845832779,
進む,親しみにくい-親しみやすい,0,847,847,735,1,2.479,,001,2018_Dec_03_1513,verb_impression,60.01149845832779,
発表する,責任感のない-責任感のある,0,848,848,1087,0,2.763,,001,2018_Dec_03_1513,verb_impression,60.01149845832779,
目立つ,無分別な-分別のある,0,849,849,914,0,2.475,,001,2018_Dec_03_1513,verb_impression,60.01149845832779,
沈む,親しみにくい-親しみやすい,0,850,850,1115,-1,2.193,,001,2018_Dec_03_1513,verb_impression,60.01149845832779,
楽しむ,短気な-気長な,0,851,851,778,0,1.948,,001,2018_Dec_03_1513,verb_impression,60.01149845832779,
断る,心の狭い-心の広い,0,852,852,85,-2,2.976,,001,2018_Dec_03_1513,verb_impression,60.01149845832779,
進む,生意気な-生意気でない,0,853,853,722,0,1.963,,001,2018_Dec_03_1513,verb_impression,60.01149845832779,
接する,軽薄な-重厚な,0,854,854,50,0,4.029,,001,2018_Dec_03_1513,verb_impression,60.01149845832779,
立候補する,生意気な-生意気でない,0,855,855,1062,0,2.96,,001,2018_Dec_03_1513,verb_impression,60.01149845832779,
楽しむ,無気力な-意欲的な,0,856,856,776,2,2.061,,001,2018_Dec_03_1513,verb_impression,60.01149845832779,
行う,人のわるい-人の良い,0,857,857,661,0,1.661,,001,2018_Dec_03_1513,verb_impression,60.01149845832779,
与える,人のわるい-人の良い,0,858,858,1141,3,2.54,,001,2018_Dec_03_1513,verb_impression,60.01149845832779,
送る,無分別な-分別のある,0,859,859,294,0,2.299,,001,2018_Dec_03_1513,verb_impression,60.01149845832779,
発表する,消極的な-積極的な,0,860,860,1080,2,4.209,,001,2018_Dec_03_1513,verb_impression,60.01149845832779,
接する,近づきがたい-人懐っこい,0,861,861,43,2,2.765,,001,2018_Dec_03_1513,verb_impression,60.01149845832779,
休む,自信のない-自信のある,0,862,862,977,0,1.881,,001,2018_Dec_03_1513,verb_impression,60.01149845832779,
行く,近づきがたい-人懐っこい,0,863,863,503,2,2.883,,001,2018_Dec_03_1513,verb_impression,60.01149845832779,
怒る,無分別な-分別のある,0,864,864,374,-1,3.198,,001,2018_Dec_03_1513,verb_impression,60.01149845832779,
心配する,近づきがたい-人懐っこい,0,865,865,143,0,3.113,,001,2018_Dec_03_1513,verb_impression,60.01149845832779,
許す,感じの悪い-感じの良い,0,866,866,273,3,2.527,,001,2018_Dec_03_1513,verb_impression,60.01149845832779,
行う,不親切な-親切な,0,867,867,679,0,3.553,,001,2018_Dec_03_1513,verb_impression,60.01149845832779,
頼む,卑屈な-堂々とした,0,868,868,132,0,1577.425,,001,2018_Dec_03_1513,verb_impression,60.01149845832779,
出る,無分別な-分別のある,0,869,869,874,0,784.994,,001,2018_Dec_03_1513,verb_impression,60.01149845832779,
話しかける,消極的な-積極的な,0,870,870,480,3,4.887,,001,2018_Dec_03_1513,verb_impression,60.01149845832779,
許す,軽薄な-重厚な,0,871,871,270,0,2.229,,001,2018_Dec_03_1513,verb_impression,60.01149845832779,
卑下する,不親切な-親切な,0,872,872,999,-2,3.449,,001,2018_Dec_03_1513,verb_impression,60.01149845832779,
怒る,軽薄な-重厚な,0,873,873,370,0,2.53,,001,2018_Dec_03_1513,verb_impression,60.01149845832779,
決める,生意気な-生意気でない,0,874,874,842,0,2.763,,001,2018_Dec_03_1513,verb_impression,60.01149845832779,
仕事する,短気な-気長な,0,875,875,798,0,1.931,,001,2018_Dec_03_1513,verb_impression,60.01149845832779,
与える,無分別な-分別のある,0,876,876,1154,2,2.47,,001,2018_Dec_03_1513,verb_impression,60.01149845832779,
言う,不親切な-親切な,0,877,877,459,0,3.9,,001,2018_Dec_03_1513,verb_impression,60.01149845832779,
引き受ける,消極的な-積極的な,0,878,878,200,0,4.446,,001,2018_Dec_03_1513,verb_impression,60.01149845832779,
近づく,責任感のない-責任感のある,0,879,879,1027,0,12.995,,001,2018_Dec_03_1513,verb_impression,60.01149845832779,
心配する,責任感のない-責任感のある,0,880,880,147,1,2.421,,001,2018_Dec_03_1513,verb_impression,60.01149845832779,
近寄る,生意気な-生意気でない,0,881,881,882,0,2.448,,001,2018_Dec_03_1513,verb_impression,60.01149845832779,
買う,恥知らずの-恥ずかしがりの,0,882,882,809,0,5.674,,001,2018_Dec_03_1513,verb_impression,60.01149845832779,
許す,沈んだ-うきうきした,0,883,883,271,0,2.683,,001,2018_Dec_03_1513,verb_impression,60.01149845832779,
受け入れる,軽薄な-重厚な,0,884,884,250,0,2.38,,001,2018_Dec_03_1513,verb_impression,60.01149845832779,
見下す,沈んだ-うきうきした,0,885,885,431,0,4.054,,001,2018_Dec_03_1513,verb_impression,60.01149845832779,
飲む,非社交的な-社交的な,0,886,886,586,1,2.262,,001,2018_Dec_03_1513,verb_impression,60.01149845832779,
発表する,恥知らずの-恥ずかしがりの,0,887,887,1089,0,2.598,,001,2018_Dec_03_1513,verb_impression,60.01149845832779,
進む,無気力な-意欲的な,0,888,888,736,3,2.635,,001,2018_Dec_03_1513,verb_impression,60.01149845832779,
送る,沈んだ-うきうきした,0,889,889,291,0,1.584,,001,2018_Dec_03_1513,verb_impression,60.01149845832779,
貸す,軽薄な-重厚な,0,890,890,170,0,1.615,,001,2018_Dec_03_1513,verb_impression,60.01149845832779,
許す,人のわるい-人の良い,0,891,891,261,3,10.022,,001,2018_Dec_03_1513,verb_impression,60.01149845832779,
困る,感じの悪い-感じの良い,0,892,892,413,0,4.498,,001,2018_Dec_03_1513,verb_impression,60.01149845832779,
歌う,憎らしい-可愛らしい,0,893,893,1124,2,2.133,,001,2018_Dec_03_1513,verb_impression,60.01149845832779,
買う,近づきがたい-人懐っこい,0,894,894,803,0,2.195,,001,2018_Dec_03_1513,verb_impression,60.01149845832779,
教える,不親切な-親切な,0,895,895,339,3,3.565,,001,2018_Dec_03_1513,verb_impression,60.01149845832779,
持つ,軽薄な-重厚な,0,896,896,530,0,2.035,,001,2018_Dec_03_1513,verb_impression,60.01149845832779,
落ち込む,軽率な-慎重な,0,897,897,1008,0,1.779,,001,2018_Dec_03_1513,verb_impression,60.01149845832779,
歌う,沈んだ-うきうきした,0,898,898,1131,3,2.235,,001,2018_Dec_03_1513,verb_impression,60.01149845832779,
許す,短気な-気長な,0,899,899,278,2,9.829,,001,2018_Dec_03_1513,verb_impression,60.01149845832779,
買う,非社交的な-社交的な,0,900,900,806,0,1.683,,001,2018_Dec_03_1513,verb_impression,60.01149845832779,
落ち込む,感じの悪い-感じの良い,0,901,901,1013,0,3.698,,001,2018_Dec_03_1513,verb_impression,60.01149845832779,
話す,親しみにくい-親しみやすい,0,902,902,355,2,3.882,,001,2018_Dec_03_1513,verb_impression,60.01149845832779,
見下す,軽薄な-重厚な,0,903,903,430,-1,3.002,,001,2018_Dec_03_1513,verb_impression,60.01149845832779,
進む,恥知らずの-恥ずかしがりの,0,904,904,729,-1,2.799,,001,2018_Dec_03_1513,verb_impression,60.01149845832779,
確認する,不親切な-親切な,0,905,905,1179,1,4.95,,001,2018_Dec_03_1513,verb_impression,60.01149845832779,
親しむ,不親切な-親切な,0,906,906,399,0,2.923,,001,2018_Dec_03_1513,verb_impression,60.01149845832779,
計画する,消極的な-積極的な,0,907,907,920,2,2.971,,001,2018_Dec_03_1513,verb_impression,60.01149845832779,
活動する,無気力な-意欲的な,0,908,908,836,2,9.727,,001,2018_Dec_03_1513,verb_impression,60.01149845832779,
与える,責任感のない-責任感のある,0,909,909,1147,1,2.282,,001,2018_Dec_03_1513,verb_impression,60.01149845832779,
接する,不親切な-親切な,0,910,910,59,1,3.618,,001,2018_Dec_03_1513,verb_impression,60.01149845832779,
評価する,卑屈な-堂々とした,0,911,911,552,0,4.232,,001,2018_Dec_03_1513,verb_impression,60.01149845832779,
話しかける,非社交的な-社交的な,0,912,912,486,2,3.281,,001,2018_Dec_03_1513,verb_impression,60.01149845832779,
相談する,恥知らずの-恥ずかしがりの,0,913,913,189,0,1.833,,001,2018_Dec_03_1513,verb_impression,60.01149845832779,
発表する,感じの悪い-感じの良い,0,914,914,1093,0,3.513,,001,2018_Dec_03_1513,verb_impression,60.01149845832779,
考える,心の狭い-心の広い,0,915,915,625,0,3.463,,001,2018_Dec_03_1513,verb_impression,60.01149845832779,
旅行する,沈んだ-うきうきした,0,916,916,751,1,6.581,,001,2018_Dec_03_1513,verb_impression,60.01149845832779,
出る,憎らしい-可愛らしい,0,917,917,864,0,12.184,,001,2018_Dec_03_1513,verb_impression,60.01149845832779,
参加する,卑屈な-堂々とした,0,918,918,952,0,10.293,,001,2018_Dec_03_1513,verb_impression,60.01149845832779,
行う,生意気な-生意気でない,0,919,919,662,0,12.267,,001,2018_Dec_03_1513,verb_impression,60.01149845832779,
歌う,無分別な-分別のある,0,920,920,1134,0,9.968,,001,2018_Dec_03_1513,verb_impression,60.01149845832779,
聞く,無分別な-分別のある,0,921,921,114,1,27.233,,001,2018_Dec_03_1513,verb_impression,60.01149845832779,
落ち込む,非社交的な-社交的な,0,922,922,1006,-1,18.928,,001,2018_Dec_03_1513,verb_impression,60.01149845832779,
合う,生意気な-生意気でない,0,923,923,222,0,66.139,,001,2018_Dec_03_1513,verb_impression,60.01149845832779,
買う,消極的な-積極的な,0,924,924,800,1,34.881,,001,2018_Dec_03_1513,verb_impression,60.01149845832779,
計画する,非社交的な-社交的な,0,925,925,926,0,8.178,,001,2018_Dec_03_1513,verb_impression,60.01149845832779,
発表する,自信のない-自信のある,0,926,926,1097,0,11.345,,001,2018_Dec_03_1513,verb_impression,60.01149845832779,
目立つ,憎らしい-可愛らしい,0,927,927,904,0,3.38,,001,2018_Dec_03_1513,verb_impression,60.01149845832779,
考える,軽率な-慎重な,0,928,928,628,0,4.132,,001,2018_Dec_03_1513,verb_impression,60.01149845832779,
怒る,非社交的な-社交的な,0,929,929,366,-1,11.165,,001,2018_Dec_03_1513,verb_impression,60.01149845832779,
近づく,卑屈な-堂々とした,0,930,930,1032,1,67.982,,001,2018_Dec_03_1513,verb_impression,60.01149845832779,
任す,不親切な-親切な,0,931,931,1199,1,6.569,,001,2018_Dec_03_1513,verb_impression,60.01149845832779,
近づく,無分別な-分別のある,0,932,932,1034,0,2.347,,001,2018_Dec_03_1513,verb_impression,60.01149845832779,
行う,非社交的な-社交的な,0,933,933,666,0,2.146,,001,2018_Dec_03_1513,verb_impression,60.01149845832779,
落ち込む,親しみにくい-親しみやすい,0,934,934,1015,-1,5.561,,001,2018_Dec_03_1513,verb_impression,60.01149845832779,
目立つ,人のわるい-人の良い,0,935,935,901,0,3.064,,001,2018_Dec_03_1513,verb_impression,60.01149845832779,
頼む,心の狭い-心の広い,0,936,936,125,0,4.63,,001,2018_Dec_03_1513,verb_impression,60.01149845832779,
休む,消極的な-積極的な,0,937,937,960,0,3.698,,001,2018_Dec_03_1513,verb_impression,60.01149845832779,
許す,無気力な-意欲的な,0,938,938,276,0,7.197,,001,2018_Dec_03_1513,verb_impression,60.01149845832779,
行う,短気な-気長な,0,939,939,678,0,7.896,,001,2018_Dec_03_1513,verb_impression,60.01149845832779,
取り組む,非社交的な-社交的な,0,940,940,706,0,3.168,,001,2018_Dec_03_1513,verb_impression,60.01149845832779,
取り組む,人のわるい-人の良い,0,941,941,701,0,9.714,,001,2018_Dec_03_1513,verb_impression,60.01149845832779,
頼む,生意気な-生意気でない,0,942,942,122,0,1.798,,001,2018_Dec_03_1513,verb_impression,60.01149845832779,
言う,無分別な-分別のある,0,943,943,454,0,7.397,,001,2018_Dec_03_1513,verb_impression,60.01149845832779,
飲む,憎らしい-可愛らしい,0,944,944,584,0,2.743,,001,2018_Dec_03_1513,verb_impression,60.01149845832779,
計画する,責任感のない-責任感のある,0,945,945,927,2,5.093,,001,2018_Dec_03_1513,verb_impression,60.01149845832779,
活動する,恥知らずの-恥ずかしがりの,0,946,946,829,-1,2.813,,001,2018_Dec_03_1513,verb_impression,60.01149845832779,
確認する,非社交的な-社交的な,0,947,947,1166,0,2.533,,001,2018_Dec_03_1513,verb_impression,60.01149845832779,
断る,人のわるい-人の良い,0,948,948,81,-1,2.647,,001,2018_Dec_03_1513,verb_impression,60.01149845832779,
飲む,短気な-気長な,0,949,949,598,0,1.467,,001,2018_Dec_03_1513,verb_impression,60.01149845832779,
仕事する,近づきがたい-人懐っこい,0,950,950,783,0,3.645,,001,2018_Dec_03_1513,verb_impression,60.01149845832779,
出る,人のわるい-人の良い,0,951,951,861,0,1.665,,001,2018_Dec_03_1513,verb_impression,60.01149845832779,
卑下する,無分別な-分別のある,0,952,952,994,-1,3.901,,001,2018_Dec_03_1513,verb_impression,60.01149845832779,
怒る,無気力な-意欲的な,0,953,953,376,1,10.967,,001,2018_Dec_03_1513,verb_impression,60.01149845832779,
評価する,自信のない-自信のある,0,954,954,557,0,8.4,,001,2018_Dec_03_1513,verb_impression,60.01149845832779,
楽しむ,非社交的な-社交的な,0,955,955,766,1,3.749,,001,2018_Dec_03_1513,verb_impression,60.01149845832779,
計画する,自信のない-自信のある,0,956,956,937,0,3.129,,001,2018_Dec_03_1513,verb_impression,60.01149845832779,
発言する,憎らしい-可愛らしい,0,957,957,564,0,7.061,,001,2018_Dec_03_1513,verb_impression,60.01149845832779,
沈む,無分別な-分別のある,0,958,958,1114,0,7.853,,001,2018_Dec_03_1513,verb_impression,60.01149845832779,
評価する,心の狭い-心の広い,0,959,959,545,0,6.931,,001,2018_Dec_03_1513,verb_impression,60.01149845832779,
気に入る,軽率な-慎重な,0,960,960,28,0,3.402,,001,2018_Dec_03_1513,verb_impression,60.01149845832779,
貸す,親しみにくい-親しみやすい,0,961,961,175,2,4.462,,001,2018_Dec_03_1513,verb_impression,60.01149845832779,
飲む,自信のない-自信のある,0,962,962,597,1,3.035,,001,2018_Dec_03_1513,verb_impression,60.01149845832779,
確認する,沈んだ-うきうきした,0,963,963,1171,0,34.444,,001,2018_Dec_03_1513,verb_impression,60.01149845832779,
近づく,軽率な-慎重な,0,964,964,1028,0,1.966,,001,2018_Dec_03_1513,verb_impression,60.01149845832779,
入る,沈んだ-うきうきした,0,965,965,691,0,2.603,,001,2018_Dec_03_1513,verb_impression,60.01149845832779,
気に入る,消極的な-積極的な,0,966,966,20,1,2.202,,001,2018_Dec_03_1513,verb_impression,60.01149845832779,
歌う,人のわるい-人の良い,0,967,967,1121,1,5.869,,001,2018_Dec_03_1513,verb_impression,60.01149845832779,
交流する,恥知らずの-恥ずかしがりの,0,968,968,649,0,7.294,,001,2018_Dec_03_1513,verb_impression,60.01149845832779,
相談する,沈んだ-うきうきした,0,969,969,191,0,26.215,,001,2018_Dec_03_1513,verb_impression,60.01149845832779,
行く,軽薄な-重厚な,0,970,970,510,-1,16.515,,001,2018_Dec_03_1513,verb_impression,60.01149845832779,
