verbs,questionnarie,q_num,verb_id,trials.thisRepN,trials.thisTrialN,trials.thisN,trials.thisIndex,rating.response,rating.rt,participant,session,date,expName,frameRate,
評価する,恥知らずだ-恥ずかしがりだ,10,28,0,0,0,549,0,4.373,OkamotoMasahiro,001,2018_Dec_05_1118,verb_impression,59.815231418320586,
怒る,軽薄だ-重厚だ,11,19,0,1,1,370,1,6.403,OkamotoMasahiro,001,2018_Dec_05_1118,verb_impression,59.815231418320586,
引き受ける,消極的だ-積極的だ,1,11,0,2,2,200,0,2.849,OkamotoMasahiro,001,2018_Dec_05_1118,verb_impression,59.815231418320586,
聞く,消極的だ-積極的だ,1,6,0,3,3,100,3,3.12,OkamotoMasahiro,001,2018_Dec_05_1118,verb_impression,59.815231418320586,
旅行する,親しみにくい-親しみやすい,16,38,0,4,4,755,1,7.579,OkamotoMasahiro,001,2018_Dec_05_1118,verb_impression,59.815231418320586,
飲む,心が狭い-心が広い,6,30,0,5,5,585,1,3.738,OkamotoMasahiro,001,2018_Dec_05_1118,verb_impression,59.815231418320586,
行く,卑屈だ-堂々とした,13,26,0,6,6,512,0,1.969,OkamotoMasahiro,001,2018_Dec_05_1118,verb_impression,59.815231418320586,
対応する,生意気だ-生意気でない,3,4,0,7,7,62,1,3.616,OkamotoMasahiro,001,2018_Dec_05_1118,verb_impression,59.815231418320586,
飲む,軽率だ-慎重だ,9,30,0,8,8,588,-1,3.04,OkamotoMasahiro,001,2018_Dec_05_1118,verb_impression,59.815231418320586,
行う,親しみにくい-親しみやすい,16,34,0,9,9,675,0,3.802,OkamotoMasahiro,001,2018_Dec_05_1118,verb_impression,59.815231418320586,
進む,不親切だ-親切だ,20,37,0,10,10,739,1,2.969,OkamotoMasahiro,001,2018_Dec_05_1118,verb_impression,59.815231418320586,
任す,責任感がない-責任感がある,8,60,0,11,11,1187,0,9.094,OkamotoMasahiro,001,2018_Dec_05_1118,verb_impression,59.815231418320586,
怒る,恥知らずだ-恥ずかしがりだ,10,19,0,12,12,369,0,963.02,OkamotoMasahiro,001,2018_Dec_05_1118,verb_impression,59.815231418320586,
発言する,軽率だ-慎重だ,9,29,0,13,13,568,0,3.97,OkamotoMasahiro,001,2018_Dec_05_1118,verb_impression,59.815231418320586,
卑下する,非社交的だ-社交的だ,7,50,0,14,14,986,-2,4.633,OkamotoMasahiro,001,2018_Dec_05_1118,verb_impression,59.815231418320586,
目立つ,憎らしい-可愛らしい,5,46,0,15,15,904,0,2.499,OkamotoMasahiro,001,2018_Dec_05_1118,verb_impression,59.815231418320586,
参加する,生意気だ-生意気でない,3,48,0,16,16,942,0,2.057,OkamotoMasahiro,001,2018_Dec_05_1118,verb_impression,59.815231418320586,
買う,不親切だ-親切だ,20,41,0,17,17,819,0,1.755,OkamotoMasahiro,001,2018_Dec_05_1118,verb_impression,59.815231418320586,
合う,近づきがたい-人懐っこい,4,12,0,18,18,223,1,3.0,OkamotoMasahiro,001,2018_Dec_05_1118,verb_impression,59.815231418320586,
与える,憎らしい-可愛らしい,5,58,0,19,19,1144,2,5.941,OkamotoMasahiro,001,2018_Dec_05_1118,verb_impression,59.815231418320586,
買う,心が狭い-心が広い,6,41,0,20,20,805,1,3.073,OkamotoMasahiro,001,2018_Dec_05_1118,verb_impression,59.815231418320586,
買う,短気だ-気長だ,19,41,0,21,21,818,0,1.963,OkamotoMasahiro,001,2018_Dec_05_1118,verb_impression,59.815231418320586,
取り組む,自信がない-自信がある,18,36,0,22,22,717,1,7.23,OkamotoMasahiro,001,2018_Dec_05_1118,verb_impression,59.815231418320586,
話す,人がわるい-人が良い,2,18,0,23,23,341,1,6.001,OkamotoMasahiro,001,2018_Dec_05_1118,verb_impression,59.815231418320586,
確認する,軽率だ-慎重だ,9,59,0,24,24,1168,3,2.536,OkamotoMasahiro,001,2018_Dec_05_1118,verb_impression,59.815231418320586,
歌う,人がわるい-人が良い,2,57,0,25,25,1121,1,2.303,OkamotoMasahiro,001,2018_Dec_05_1118,verb_impression,59.815231418320586,
近づく,親しみにくい-親しみやすい,16,52,0,26,26,1035,3,2.116,OkamotoMasahiro,001,2018_Dec_05_1118,verb_impression,59.815231418320586,
立候補する,不親切だ-親切だ,20,54,0,27,27,1079,1,29.251,OkamotoMasahiro,001,2018_Dec_05_1118,verb_impression,59.815231418320586,
行う,卑屈だ-堂々とした,13,34,0,28,28,672,2,3.341,OkamotoMasahiro,001,2018_Dec_05_1118,verb_impression,59.815231418320586,
交流する,人がわるい-人が良い,2,33,0,29,29,641,3,2.086,OkamotoMasahiro,001,2018_Dec_05_1118,verb_impression,59.815231418320586,
近寄る,非社交的だ-社交的だ,7,45,0,30,30,886,3,1.951,OkamotoMasahiro,001,2018_Dec_05_1118,verb_impression,59.815231418320586,
近づく,責任感がない-責任感がある,8,52,0,31,31,1027,0,2.247,OkamotoMasahiro,001,2018_Dec_05_1118,verb_impression,59.815231418320586,
仕事する,短気だ-気長だ,19,40,0,32,32,798,0,1.953,OkamotoMasahiro,001,2018_Dec_05_1118,verb_impression,59.815231418320586,
飲む,沈んだ-うきうきした,12,30,0,33,33,591,0,2.252,OkamotoMasahiro,001,2018_Dec_05_1118,verb_impression,59.815231418320586,
教える,卑屈だ-堂々とした,13,17,0,34,34,332,1,2.572,OkamotoMasahiro,001,2018_Dec_05_1118,verb_impression,59.815231418320586,
気に入る,責任感がない-責任感がある,8,2,0,35,35,27,0,2.352,OkamotoMasahiro,001,2018_Dec_05_1118,verb_impression,59.815231418320586,
仕事する,人がわるい-人が良い,2,40,0,36,36,781,1,3.554,OkamotoMasahiro,001,2018_Dec_05_1118,verb_impression,59.815231418320586,
教える,感じが悪い-感じが良い,14,17,0,37,37,333,1,3.169,OkamotoMasahiro,001,2018_Dec_05_1118,verb_impression,59.815231418320586,
出る,近づきがたい-人懐っこい,4,44,0,38,38,863,1,3.668,OkamotoMasahiro,001,2018_Dec_05_1118,verb_impression,59.815231418320586,
感じる,無気力だ-意欲的だ,17,16,0,39,39,316,0,2.523,OkamotoMasahiro,001,2018_Dec_05_1118,verb_impression,59.815231418320586,
許す,心が狭い-心が広い,6,14,0,40,40,265,3,2.008,OkamotoMasahiro,001,2018_Dec_05_1118,verb_impression,59.815231418320586,
助ける,近づきがたい-人懐っこい,4,24,0,41,41,463,3,3.352,OkamotoMasahiro,001,2018_Dec_05_1118,verb_impression,59.815231418320586,
参加する,軽薄だ-重厚だ,11,48,0,42,42,950,0,7.777,OkamotoMasahiro,001,2018_Dec_05_1118,verb_impression,59.815231418320586,
聞く,短気だ-気長だ,19,6,0,43,43,118,2,2.758,OkamotoMasahiro,001,2018_Dec_05_1118,verb_impression,59.815231418320586,
受け入れる,責任感がない-責任感がある,8,13,0,44,44,247,1,32.556,OkamotoMasahiro,001,2018_Dec_05_1118,verb_impression,59.815231418320586,
見下す,非社交的だ-社交的だ,7,22,0,45,45,426,-2,15.825,OkamotoMasahiro,001,2018_Dec_05_1118,verb_impression,59.815231418320586,
聞く,軽率だ-慎重だ,9,6,0,46,46,108,2,2.859,OkamotoMasahiro,001,2018_Dec_05_1118,verb_impression,59.815231418320586,
休む,生意気だ-生意気でない,3,49,0,47,47,962,0,48.749,OkamotoMasahiro,001,2018_Dec_05_1118,verb_impression,59.815231418320586,
貸す,憎らしい-可愛らしい,5,9,0,48,48,164,2,3.271,OkamotoMasahiro,001,2018_Dec_05_1118,verb_impression,59.815231418320586,
送る,責任感がない-責任感がある,8,15,0,49,49,287,1,19.903,OkamotoMasahiro,001,2018_Dec_05_1118,verb_impression,59.815231418320586,
合う,生意気だ-生意気でない,3,12,0,50,50,222,1,3.206,OkamotoMasahiro,001,2018_Dec_05_1118,verb_impression,59.815231418320586,
聞く,親しみにくい-親しみやすい,16,6,0,51,51,115,3,2.352,OkamotoMasahiro,001,2018_Dec_05_1118,verb_impression,59.815231418320586,
許す,非社交的だ-社交的だ,7,14,0,52,52,266,3,1.873,OkamotoMasahiro,001,2018_Dec_05_1118,verb_impression,59.815231418320586,
出る,非社交的だ-社交的だ,7,44,0,53,53,866,2,29.249,OkamotoMasahiro,001,2018_Dec_05_1118,verb_impression,59.815231418320586,
親しむ,近づきがたい-人懐っこい,4,20,0,54,54,383,2,16.835,OkamotoMasahiro,001,2018_Dec_05_1118,verb_impression,59.815231418320586,
楽しむ,不親切だ-親切だ,20,39,0,55,55,779,2,65.585,OkamotoMasahiro,001,2018_Dec_05_1118,verb_impression,59.815231418320586,
確認する,恥知らずだ-恥ずかしがりだ,10,59,0,56,56,1169,1,2.955,OkamotoMasahiro,001,2018_Dec_05_1118,verb_impression,59.815231418320586,
立候補する,軽率だ-慎重だ,9,54,0,57,57,1068,0,3.359,OkamotoMasahiro,001,2018_Dec_05_1118,verb_impression,59.815231418320586,
行動する,心が狭い-心が広い,6,31,0,58,58,605,0,34.033,OkamotoMasahiro,001,2018_Dec_05_1118,verb_impression,59.815231418320586,
発言する,恥知らずだ-恥ずかしがりだ,10,29,0,59,59,569,-1,34.354,OkamotoMasahiro,001,2018_Dec_05_1118,verb_impression,59.815231418320586,
目立つ,恥知らずだ-恥ずかしがりだ,10,46,0,60,60,909,-2,15.014,OkamotoMasahiro,001,2018_Dec_05_1118,verb_impression,59.815231418320586,
旅行する,責任感がない-責任感がある,8,38,0,61,61,747,0,2.846,OkamotoMasahiro,001,2018_Dec_05_1118,verb_impression,59.815231418320586,
計画する,感じが悪い-感じが良い,14,47,0,62,62,933,0,1.917,OkamotoMasahiro,001,2018_Dec_05_1118,verb_impression,59.815231418320586,
目立つ,沈んだ-うきうきした,12,46,0,63,63,911,2,4.975,OkamotoMasahiro,001,2018_Dec_05_1118,verb_impression,59.815231418320586,
心配する,短気だ-気長だ,19,8,0,64,64,158,0,4.256,OkamotoMasahiro,001,2018_Dec_05_1118,verb_impression,59.815231418320586,
沈む,近づきがたい-人懐っこい,4,56,0,65,65,1103,-1,2.431,OkamotoMasahiro,001,2018_Dec_05_1118,verb_impression,59.815231418320586,
入る,近づきがたい-人懐っこい,4,35,0,66,66,683,0,4.216,OkamotoMasahiro,001,2018_Dec_05_1118,verb_impression,59.815231418320586,
立候補する,短気だ-気長だ,19,54,0,67,67,1078,0,2.99,OkamotoMasahiro,001,2018_Dec_05_1118,verb_impression,59.815231418320586,
進む,近づきがたい-人懐っこい,4,37,0,68,68,723,0,13.537,OkamotoMasahiro,001,2018_Dec_05_1118,verb_impression,59.815231418320586,
卑下する,近づきがたい-人懐っこい,4,50,0,69,69,983,-2,2.682,OkamotoMasahiro,001,2018_Dec_05_1118,verb_impression,59.815231418320586,
任す,人がわるい-人が良い,2,60,0,70,70,1181,1,5.406,OkamotoMasahiro,001,2018_Dec_05_1118,verb_impression,59.815231418320586,
気に入る,近づきがたい-人懐っこい,4,2,0,71,71,23,1,3.038,OkamotoMasahiro,001,2018_Dec_05_1118,verb_impression,59.815231418320586,
与える,感じが悪い-感じが良い,14,58,0,72,72,1153,3,1.67,OkamotoMasahiro,001,2018_Dec_05_1118,verb_impression,59.815231418320586,
受け入れる,生意気だ-生意気でない,3,13,0,73,73,242,3,3.725,OkamotoMasahiro,001,2018_Dec_05_1118,verb_impression,59.815231418320586,
発言する,不親切だ-親切だ,20,29,0,74,74,579,0,1.939,OkamotoMasahiro,001,2018_Dec_05_1118,verb_impression,59.815231418320586,
困る,卑屈だ-堂々とした,13,21,0,75,75,412,-2,2.153,OkamotoMasahiro,001,2018_Dec_05_1118,verb_impression,59.815231418320586,
怒る,無気力だ-意欲的だ,17,19,0,76,76,376,2,4.292,OkamotoMasahiro,001,2018_Dec_05_1118,verb_impression,59.815231418320586,
決める,沈んだ-うきうきした,12,43,0,77,77,851,1,3.8,OkamotoMasahiro,001,2018_Dec_05_1118,verb_impression,59.815231418320586,
感じる,軽率だ-慎重だ,9,16,0,78,78,308,0,1.527,OkamotoMasahiro,001,2018_Dec_05_1118,verb_impression,59.815231418320586,
話す,親しみにくい-親しみやすい,16,18,0,79,79,355,2,3.09,OkamotoMasahiro,001,2018_Dec_05_1118,verb_impression,59.815231418320586,
休む,恥知らずだ-恥ずかしがりだ,10,49,0,80,80,969,0,3.376,OkamotoMasahiro,001,2018_Dec_05_1118,verb_impression,59.815231418320586,
困る,消極的だ-積極的だ,1,21,0,81,81,400,0,2.277,OkamotoMasahiro,001,2018_Dec_05_1118,verb_impression,59.815231418320586,
仕事する,消極的だ-積極的だ,1,40,0,82,82,780,3,3.948,OkamotoMasahiro,001,2018_Dec_05_1118,verb_impression,59.815231418320586,
決める,責任感がない-責任感がある,8,43,0,83,83,847,1,3.738,OkamotoMasahiro,001,2018_Dec_05_1118,verb_impression,59.815231418320586,
行動する,沈んだ-うきうきした,12,31,0,84,84,611,1,1.853,OkamotoMasahiro,001,2018_Dec_05_1118,verb_impression,59.815231418320586,
立候補する,無気力だ-意欲的だ,17,54,0,85,85,1076,3,2.315,OkamotoMasahiro,001,2018_Dec_05_1118,verb_impression,59.815231418320586,
行う,短気だ-気長だ,19,34,0,86,86,678,0,3.116,OkamotoMasahiro,001,2018_Dec_05_1118,verb_impression,59.815231418320586,
困る,恥知らずだ-恥ずかしがりだ,10,21,0,87,87,409,1,3.574,OkamotoMasahiro,001,2018_Dec_05_1118,verb_impression,59.815231418320586,
沈む,心が狭い-心が広い,6,56,0,88,88,1105,0,7.922,OkamotoMasahiro,001,2018_Dec_05_1118,verb_impression,59.815231418320586,
怒る,人がわるい-人が良い,2,19,0,89,89,361,0,3.706,OkamotoMasahiro,001,2018_Dec_05_1118,verb_impression,59.815231418320586,
心配する,軽率だ-慎重だ,9,8,0,90,90,148,3,2.724,OkamotoMasahiro,001,2018_Dec_05_1118,verb_impression,59.815231418320586,
話しかける,軽薄だ-重厚だ,11,25,0,91,91,490,0,2.36,OkamotoMasahiro,001,2018_Dec_05_1118,verb_impression,59.815231418320586,
対応する,消極的だ-積極的だ,1,4,0,92,92,60,3,5.028,OkamotoMasahiro,001,2018_Dec_05_1118,verb_impression,59.815231418320586,
目立つ,無気力だ-意欲的だ,17,46,0,93,93,916,3,1.682,OkamotoMasahiro,001,2018_Dec_05_1118,verb_impression,59.815231418320586,
務める,無分別だ-分別がある,15,53,0,94,94,1054,2,2.002,OkamotoMasahiro,001,2018_Dec_05_1118,verb_impression,59.815231418320586,
怒る,責任感がない-責任感がある,8,19,0,95,95,367,1,8.237,OkamotoMasahiro,001,2018_Dec_05_1118,verb_impression,59.815231418320586,
怒る,生意気だ-生意気でない,3,19,0,96,96,362,0,2.814,OkamotoMasahiro,001,2018_Dec_05_1118,verb_impression,59.815231418320586,
持つ,人がわるい-人が良い,2,27,0,97,97,521,0,2.323,OkamotoMasahiro,001,2018_Dec_05_1118,verb_impression,59.815231418320586,
断る,自信がない-自信がある,18,5,0,98,98,97,0,6.119,OkamotoMasahiro,001,2018_Dec_05_1118,verb_impression,59.815231418320586,
発表する,軽率だ-慎重だ,9,55,0,99,99,1088,0,3.419,OkamotoMasahiro,001,2018_Dec_05_1118,verb_impression,59.815231418320586,
発表する,憎らしい-可愛らしい,5,55,0,100,100,1084,0,1.746,OkamotoMasahiro,001,2018_Dec_05_1118,verb_impression,59.815231418320586,
卑下する,人がわるい-人が良い,2,50,0,101,101,981,-1,10.639,OkamotoMasahiro,001,2018_Dec_05_1118,verb_impression,59.815231418320586,
行く,軽率だ-慎重だ,9,26,0,102,102,508,-1,3.735,OkamotoMasahiro,001,2018_Dec_05_1118,verb_impression,59.815231418320586,
飲む,親しみにくい-親しみやすい,16,30,0,103,103,595,1,2.572,OkamotoMasahiro,001,2018_Dec_05_1118,verb_impression,59.815231418320586,
接する,近づきがたい-人懐っこい,4,3,0,104,104,43,3,1.939,OkamotoMasahiro,001,2018_Dec_05_1118,verb_impression,59.815231418320586,
確認する,卑屈だ-堂々とした,13,59,0,105,105,1172,0,2.64,OkamotoMasahiro,001,2018_Dec_05_1118,verb_impression,59.815231418320586,
合う,不親切だ-親切だ,20,12,0,106,106,239,1,3.121,OkamotoMasahiro,001,2018_Dec_05_1118,verb_impression,59.815231418320586,
発表する,不親切だ-親切だ,20,55,0,107,107,1099,0,5.047,OkamotoMasahiro,001,2018_Dec_05_1118,verb_impression,59.815231418320586,
行う,恥知らずだ-恥ずかしがりだ,10,34,0,108,108,669,-1,4.309,OkamotoMasahiro,001,2018_Dec_05_1118,verb_impression,59.815231418320586,
言う,責任感がない-責任感がある,8,23,0,109,109,447,0,2.238,OkamotoMasahiro,001,2018_Dec_05_1118,verb_impression,59.815231418320586,
行動する,近づきがたい-人懐っこい,4,31,0,110,110,603,0,3.906,OkamotoMasahiro,001,2018_Dec_05_1118,verb_impression,59.815231418320586,
断る,憎らしい-可愛らしい,5,5,0,111,111,84,-1,2.656,OkamotoMasahiro,001,2018_Dec_05_1118,verb_impression,59.815231418320586,
近寄る,不親切だ-親切だ,20,45,0,112,112,899,1,2.688,OkamotoMasahiro,001,2018_Dec_05_1118,verb_impression,59.815231418320586,
言う,無分別だ-分別がある,15,23,0,113,113,454,0,4.007,OkamotoMasahiro,001,2018_Dec_05_1118,verb_impression,59.815231418320586,
参加する,自信がない-自信がある,18,48,0,114,114,957,2,2.089,OkamotoMasahiro,001,2018_Dec_05_1118,verb_impression,59.815231418320586,
卑下する,軽薄だ-重厚だ,11,50,0,115,115,990,-1,3.829,OkamotoMasahiro,001,2018_Dec_05_1118,verb_impression,59.815231418320586,
近寄る,卑屈だ-堂々とした,13,45,0,116,116,892,2,4.307,OkamotoMasahiro,001,2018_Dec_05_1118,verb_impression,59.815231418320586,
与える,心が狭い-心が広い,6,58,0,117,117,1145,3,1.775,OkamotoMasahiro,001,2018_Dec_05_1118,verb_impression,59.815231418320586,
行う,無分別だ-分別がある,15,34,0,118,118,674,1,2.258,OkamotoMasahiro,001,2018_Dec_05_1118,verb_impression,59.815231418320586,
楽しむ,近づきがたい-人懐っこい,4,39,0,119,119,763,3,3.972,OkamotoMasahiro,001,2018_Dec_05_1118,verb_impression,59.815231418320586,
取り組む,沈んだ-うきうきした,12,36,0,120,120,711,1,8.235,OkamotoMasahiro,001,2018_Dec_05_1118,verb_impression,59.815231418320586,
対応する,短気だ-気長だ,19,4,0,121,121,78,0,2.141,OkamotoMasahiro,001,2018_Dec_05_1118,verb_impression,59.815231418320586,
決める,消極的だ-積極的だ,1,43,0,122,122,840,3,2.307,OkamotoMasahiro,001,2018_Dec_05_1118,verb_impression,59.815231418320586,
考える,自信がない-自信がある,18,32,0,123,123,637,0,2.585,OkamotoMasahiro,001,2018_Dec_05_1118,verb_impression,59.815231418320586,
計画する,恥知らずだ-恥ずかしがりだ,10,47,0,124,124,929,0,1.727,OkamotoMasahiro,001,2018_Dec_05_1118,verb_impression,59.815231418320586,
沈む,無気力だ-意欲的だ,17,56,0,125,125,1116,-2,4.807,OkamotoMasahiro,001,2018_Dec_05_1118,verb_impression,59.815231418320586,
対応する,不親切だ-親切だ,20,4,0,126,126,79,3,2.527,OkamotoMasahiro,001,2018_Dec_05_1118,verb_impression,59.815231418320586,
引き受ける,恥知らずだ-恥ずかしがりだ,10,11,0,127,127,209,0,2.39,OkamotoMasahiro,001,2018_Dec_05_1118,verb_impression,59.815231418320586,
行う,憎らしい-可愛らしい,5,34,0,128,128,664,0,1.522,OkamotoMasahiro,001,2018_Dec_05_1118,verb_impression,59.815231418320586,
対応する,沈んだ-うきうきした,12,4,0,129,129,71,1,2.741,OkamotoMasahiro,001,2018_Dec_05_1118,verb_impression,59.815231418320586,
対応する,近づきがたい-人懐っこい,4,4,0,130,130,63,2,3.777,OkamotoMasahiro,001,2018_Dec_05_1118,verb_impression,59.815231418320586,
受け入れる,軽薄だ-重厚だ,11,13,0,131,131,250,0,7.092,OkamotoMasahiro,001,2018_Dec_05_1118,verb_impression,59.815231418320586,
旅行する,人がわるい-人が良い,2,38,0,132,132,741,1,3.673,OkamotoMasahiro,001,2018_Dec_05_1118,verb_impression,59.815231418320586,
行く,沈んだ-うきうきした,12,26,0,133,133,511,1,2.457,OkamotoMasahiro,001,2018_Dec_05_1118,verb_impression,59.815231418320586,
見下す,恥知らずだ-恥ずかしがりだ,10,22,0,134,134,429,-1,2.39,OkamotoMasahiro,001,2018_Dec_05_1118,verb_impression,59.815231418320586,
入る,親しみにくい-親しみやすい,16,35,0,135,135,695,1,9.171,OkamotoMasahiro,001,2018_Dec_05_1118,verb_impression,59.815231418320586,
教える,責任感がない-責任感がある,8,17,0,136,136,327,1,2.19,OkamotoMasahiro,001,2018_Dec_05_1118,verb_impression,59.815231418320586,
許す,自信がない-自信がある,18,14,0,137,137,277,3,2.491,OkamotoMasahiro,001,2018_Dec_05_1118,verb_impression,59.815231418320586,
旅行する,恥知らずだ-恥ずかしがりだ,10,38,0,138,138,749,0,3.606,OkamotoMasahiro,001,2018_Dec_05_1118,verb_impression,59.815231418320586,
感じる,卑屈だ-堂々とした,13,16,0,139,139,312,0,1.574,OkamotoMasahiro,001,2018_Dec_05_1118,verb_impression,59.815231418320586,
親しむ,消極的だ-積極的だ,1,20,0,140,140,380,2,2.409,OkamotoMasahiro,001,2018_Dec_05_1118,verb_impression,59.815231418320586,
頼む,人がわるい-人が良い,2,7,0,141,141,121,0,3.702,OkamotoMasahiro,001,2018_Dec_05_1118,verb_impression,59.815231418320586,
与える,非社交的だ-社交的だ,7,58,0,142,142,1146,3,2.272,OkamotoMasahiro,001,2018_Dec_05_1118,verb_impression,59.815231418320586,
引き受ける,短気だ-気長だ,19,11,0,143,143,218,2,1.84,OkamotoMasahiro,001,2018_Dec_05_1118,verb_impression,59.815231418320586,
心配する,卑屈だ-堂々とした,13,8,0,144,144,152,0,2.289,OkamotoMasahiro,001,2018_Dec_05_1118,verb_impression,59.815231418320586,
参加する,卑屈だ-堂々とした,13,48,0,145,145,952,2,2.427,OkamotoMasahiro,001,2018_Dec_05_1118,verb_impression,59.815231418320586,
合う,卑屈だ-堂々とした,13,12,0,146,146,232,0,1.817,OkamotoMasahiro,001,2018_Dec_05_1118,verb_impression,59.815231418320586,
卑下する,親しみにくい-親しみやすい,16,50,0,147,147,995,-1,1.821,OkamotoMasahiro,001,2018_Dec_05_1118,verb_impression,59.815231418320586,
相談する,恥知らずだ-恥ずかしがりだ,10,10,0,148,148,189,1,4.707,OkamotoMasahiro,001,2018_Dec_05_1118,verb_impression,59.815231418320586,
近寄る,憎らしい-可愛らしい,5,45,0,149,149,884,2,1.857,OkamotoMasahiro,001,2018_Dec_05_1118,verb_impression,59.815231418320586,
心配する,親しみにくい-親しみやすい,16,8,0,150,150,155,1,3.423,OkamotoMasahiro,001,2018_Dec_05_1118,verb_impression,59.815231418320586,
卑下する,無分別だ-分別がある,15,50,0,151,151,994,-1,3.457,OkamotoMasahiro,001,2018_Dec_05_1118,verb_impression,59.815231418320586,
対応する,人がわるい-人が良い,2,4,0,152,152,61,3,3.904,OkamotoMasahiro,001,2018_Dec_05_1118,verb_impression,59.815231418320586,
話しかける,自信がない-自信がある,18,25,0,153,153,497,2,1.837,OkamotoMasahiro,001,2018_Dec_05_1118,verb_impression,59.815231418320586,
合う,憎らしい-可愛らしい,5,12,0,154,154,224,1,1.524,OkamotoMasahiro,001,2018_Dec_05_1118,verb_impression,59.815231418320586,
受け入れる,恥知らずだ-恥ずかしがりだ,10,13,0,155,155,249,0,3.098,OkamotoMasahiro,001,2018_Dec_05_1118,verb_impression,59.815231418320586,
対応する,卑屈だ-堂々とした,13,4,0,156,156,72,2,10.968,OkamotoMasahiro,001,2018_Dec_05_1118,verb_impression,59.815231418320586,
連絡する,無気力だ-意欲的だ,17,1,0,157,157,16,2,2.037,OkamotoMasahiro,001,2018_Dec_05_1118,verb_impression,59.815231418320586,
休む,軽薄だ-重厚だ,11,49,0,158,158,970,0,3.322,OkamotoMasahiro,001,2018_Dec_05_1118,verb_impression,59.815231418320586,
話しかける,憎らしい-可愛らしい,5,25,0,159,159,484,2,1.69,OkamotoMasahiro,001,2018_Dec_05_1118,verb_impression,59.815231418320586,
相談する,無気力だ-意欲的だ,17,10,0,160,160,196,2,2.525,OkamotoMasahiro,001,2018_Dec_05_1118,verb_impression,59.815231418320586,
断る,軽率だ-慎重だ,9,5,0,161,161,88,1,2.14,OkamotoMasahiro,001,2018_Dec_05_1118,verb_impression,59.815231418320586,
取り組む,恥知らずだ-恥ずかしがりだ,10,36,0,162,162,709,0,2.171,OkamotoMasahiro,001,2018_Dec_05_1118,verb_impression,59.815231418320586,
与える,無気力だ-意欲的だ,17,58,0,163,163,1156,2,1.885,OkamotoMasahiro,001,2018_Dec_05_1118,verb_impression,59.815231418320586,
入る,無分別だ-分別がある,15,35,0,164,164,694,0,2.903,OkamotoMasahiro,001,2018_Dec_05_1118,verb_impression,59.815231418320586,
交流する,軽率だ-慎重だ,9,33,0,165,165,648,0,12.272,OkamotoMasahiro,001,2018_Dec_05_1118,verb_impression,59.815231418320586,
活動する,無気力だ-意欲的だ,17,42,0,166,166,836,3,3.238,OkamotoMasahiro,001,2018_Dec_05_1118,verb_impression,59.815231418320586,
目立つ,生意気だ-生意気でない,3,46,0,167,167,902,-1,2.943,OkamotoMasahiro,001,2018_Dec_05_1118,verb_impression,59.815231418320586,
行く,親しみにくい-親しみやすい,16,26,0,168,168,515,2,3.306,OkamotoMasahiro,001,2018_Dec_05_1118,verb_impression,59.815231418320586,
買う,卑屈だ-堂々とした,13,41,0,169,169,812,0,2.523,OkamotoMasahiro,001,2018_Dec_05_1118,verb_impression,59.815231418320586,
頼む,近づきがたい-人懐っこい,4,7,0,170,170,123,2,8.356,OkamotoMasahiro,001,2018_Dec_05_1118,verb_impression,59.815231418320586,
頼む,自信がない-自信がある,18,7,0,171,171,137,1,3.793,OkamotoMasahiro,001,2018_Dec_05_1118,verb_impression,59.815231418320586,
親しむ,短気だ-気長だ,19,20,0,172,172,398,0,3.99,OkamotoMasahiro,001,2018_Dec_05_1118,verb_impression,59.815231418320586,
立候補する,自信がない-自信がある,18,54,0,173,173,1077,3,2.935,OkamotoMasahiro,001,2018_Dec_05_1118,verb_impression,59.815231418320586,
相談する,人がわるい-人が良い,2,10,0,174,174,181,1,1.705,OkamotoMasahiro,001,2018_Dec_05_1118,verb_impression,59.815231418320586,
活動する,恥知らずだ-恥ずかしがりだ,10,42,0,175,175,829,0,5.842,OkamotoMasahiro,001,2018_Dec_05_1118,verb_impression,59.815231418320586,
合う,無気力だ-意欲的だ,17,12,0,176,176,236,0,1.821,OkamotoMasahiro,001,2018_Dec_05_1118,verb_impression,59.815231418320586,
近づく,感じが悪い-感じが良い,14,52,0,177,177,1033,1,2.218,OkamotoMasahiro,001,2018_Dec_05_1118,verb_impression,59.815231418320586,
助ける,恥知らずだ-恥ずかしがりだ,10,24,0,178,178,469,0,3.764,OkamotoMasahiro,001,2018_Dec_05_1118,verb_impression,59.815231418320586,
入る,不親切だ-親切だ,20,35,0,179,179,699,0,5.939,OkamotoMasahiro,001,2018_Dec_05_1118,verb_impression,59.815231418320586,
近づく,恥知らずだ-恥ずかしがりだ,10,52,0,180,180,1029,0,2.721,OkamotoMasahiro,001,2018_Dec_05_1118,verb_impression,59.815231418320586,
連絡する,卑屈だ-堂々とした,13,1,0,181,181,12,1,4.393,OkamotoMasahiro,001,2018_Dec_05_1118,verb_impression,59.815231418320586,
言う,非社交的だ-社交的だ,7,23,0,182,182,446,2,2.676,OkamotoMasahiro,001,2018_Dec_05_1118,verb_impression,59.815231418320586,
務める,近づきがたい-人懐っこい,4,53,0,183,183,1043,1,12.154,OkamotoMasahiro,001,2018_Dec_05_1118,verb_impression,59.815231418320586,
楽しむ,自信がない-自信がある,18,39,0,184,184,777,2,2.385,OkamotoMasahiro,001,2018_Dec_05_1118,verb_impression,59.815231418320586,
感じる,近づきがたい-人懐っこい,4,16,0,185,185,303,0,1.686,OkamotoMasahiro,001,2018_Dec_05_1118,verb_impression,59.815231418320586,
発表する,感じが悪い-感じが良い,14,55,0,186,186,1093,0,4.354,OkamotoMasahiro,001,2018_Dec_05_1118,verb_impression,59.815231418320586,
目立つ,短気だ-気長だ,19,46,0,187,187,918,-1,2.691,OkamotoMasahiro,001,2018_Dec_05_1118,verb_impression,59.815231418320586,
行動する,短気だ-気長だ,19,31,0,188,188,618,-1,2.997,OkamotoMasahiro,001,2018_Dec_05_1118,verb_impression,59.815231418320586,
行く,自信がない-自信がある,18,26,0,189,189,517,1,2.84,OkamotoMasahiro,001,2018_Dec_05_1118,verb_impression,59.815231418320586,
貸す,無気力だ-意欲的だ,17,9,0,190,190,176,2,16.54,OkamotoMasahiro,001,2018_Dec_05_1118,verb_impression,59.815231418320586,
困る,軽薄だ-重厚だ,11,21,0,191,191,410,0,12.475,OkamotoMasahiro,001,2018_Dec_05_1118,verb_impression,59.815231418320586,
落ち込む,卑屈だ-堂々とした,13,51,0,192,192,1012,-2,3.424,OkamotoMasahiro,001,2018_Dec_05_1118,verb_impression,59.815231418320586,
接する,憎らしい-可愛らしい,5,3,0,193,193,44,1,1.672,OkamotoMasahiro,001,2018_Dec_05_1118,verb_impression,59.815231418320586,
沈む,沈んだ-うきうきした,12,56,0,194,194,1111,-3,2.224,OkamotoMasahiro,001,2018_Dec_05_1118,verb_impression,59.815231418320586,
与える,人がわるい-人が良い,2,58,0,195,195,1141,3,1.786,OkamotoMasahiro,001,2018_Dec_05_1118,verb_impression,59.815231418320586,
近寄る,沈んだ-うきうきした,12,45,0,196,196,891,0,6.139,OkamotoMasahiro,001,2018_Dec_05_1118,verb_impression,59.815231418320586,
合う,心が狭い-心が広い,6,12,0,197,197,225,1,3.341,OkamotoMasahiro,001,2018_Dec_05_1118,verb_impression,59.815231418320586,
近寄る,恥知らずだ-恥ずかしがりだ,10,45,0,198,198,889,-1,11.788,OkamotoMasahiro,001,2018_Dec_05_1118,verb_impression,59.815231418320586,
相談する,軽率だ-慎重だ,9,10,0,199,199,188,2,2.103,OkamotoMasahiro,001,2018_Dec_05_1118,verb_impression,59.815231418320586,
買う,人がわるい-人が良い,2,41,0,200,200,801,0,4.824,OkamotoMasahiro,001,2018_Dec_05_1118,verb_impression,59.815231418320586,
言う,近づきがたい-人懐っこい,4,23,0,201,201,443,0,4.704,OkamotoMasahiro,001,2018_Dec_05_1118,verb_impression,59.815231418320586,
聞く,軽薄だ-重厚だ,11,6,0,202,202,110,2,11.894,OkamotoMasahiro,001,2018_Dec_05_1118,verb_impression,59.815231418320586,
親しむ,憎らしい-可愛らしい,5,20,0,203,203,384,2,16.639,OkamotoMasahiro,001,2018_Dec_05_1118,verb_impression,59.815231418320586,
交流する,生意気だ-生意気でない,3,33,0,204,204,642,1,2.642,OkamotoMasahiro,001,2018_Dec_05_1118,verb_impression,59.815231418320586,
近づく,無分別だ-分別がある,15,52,0,205,205,1034,0,51.251,OkamotoMasahiro,001,2018_Dec_05_1118,verb_impression,59.815231418320586,
近づく,生意気だ-生意気でない,3,52,0,206,206,1022,1,3.698,OkamotoMasahiro,001,2018_Dec_05_1118,verb_impression,59.815231418320586,
旅行する,無分別だ-分別がある,15,38,0,207,207,754,0,1.586,OkamotoMasahiro,001,2018_Dec_05_1118,verb_impression,59.815231418320586,
立候補する,卑屈だ-堂々とした,13,54,0,208,208,1072,3,23.404,OkamotoMasahiro,001,2018_Dec_05_1118,verb_impression,59.815231418320586,
断る,沈んだ-うきうきした,12,5,0,209,209,91,-1,3.138,OkamotoMasahiro,001,2018_Dec_05_1118,verb_impression,59.815231418320586,
受け入れる,憎らしい-可愛らしい,5,13,0,210,210,244,2,6.089,OkamotoMasahiro,001,2018_Dec_05_1118,verb_impression,59.815231418320586,
活動する,無分別だ-分別がある,15,42,0,211,211,834,0,2.493,OkamotoMasahiro,001,2018_Dec_05_1118,verb_impression,59.815231418320586,
買う,自信がない-自信がある,18,41,0,212,212,817,2,3.371,OkamotoMasahiro,001,2018_Dec_05_1118,verb_impression,59.815231418320586,
連絡する,憎らしい-可愛らしい,5,1,0,213,213,4,1,31.621,OkamotoMasahiro,001,2018_Dec_05_1118,verb_impression,59.815231418320586,
送る,消極的だ-積極的だ,1,15,0,214,214,280,1,2.337,OkamotoMasahiro,001,2018_Dec_05_1118,verb_impression,59.815231418320586,
考える,不親切だ-親切だ,20,32,0,215,215,639,0,2.373,OkamotoMasahiro,001,2018_Dec_05_1118,verb_impression,59.815231418320586,
参加する,軽率だ-慎重だ,9,48,0,216,216,948,0,2.375,OkamotoMasahiro,001,2018_Dec_05_1118,verb_impression,59.815231418320586,
務める,親しみにくい-親しみやすい,16,53,0,217,217,1055,1,2.855,OkamotoMasahiro,001,2018_Dec_05_1118,verb_impression,59.815231418320586,
取り組む,軽率だ-慎重だ,9,36,0,218,218,708,0,2.209,OkamotoMasahiro,001,2018_Dec_05_1118,verb_impression,59.815231418320586,
入る,恥知らずだ-恥ずかしがりだ,10,35,0,219,219,689,0,2.077,OkamotoMasahiro,001,2018_Dec_05_1118,verb_impression,59.815231418320586,
沈む,卑屈だ-堂々とした,13,56,0,220,220,1112,-2,3.076,OkamotoMasahiro,001,2018_Dec_05_1118,verb_impression,59.815231418320586,
気に入る,卑屈だ-堂々とした,13,2,0,221,221,32,0,1.894,OkamotoMasahiro,001,2018_Dec_05_1118,verb_impression,59.815231418320586,
親しむ,軽率だ-慎重だ,9,20,0,222,222,388,0,2.472,OkamotoMasahiro,001,2018_Dec_05_1118,verb_impression,59.815231418320586,
決める,感じが悪い-感じが良い,14,43,0,223,223,853,1,2.101,OkamotoMasahiro,001,2018_Dec_05_1118,verb_impression,59.815231418320586,
気に入る,非社交的だ-社交的だ,7,2,0,224,224,26,0,4.239,OkamotoMasahiro,001,2018_Dec_05_1118,verb_impression,59.815231418320586,
決める,短気だ-気長だ,19,43,0,225,225,858,-1,3.299,OkamotoMasahiro,001,2018_Dec_05_1118,verb_impression,59.815231418320586,
引き受ける,近づきがたい-人懐っこい,4,11,0,226,226,203,2,3.553,OkamotoMasahiro,001,2018_Dec_05_1118,verb_impression,59.815231418320586,
貸す,人がわるい-人が良い,2,9,0,227,227,161,3,1.956,OkamotoMasahiro,001,2018_Dec_05_1118,verb_impression,59.815231418320586,
引き受ける,沈んだ-うきうきした,12,11,0,228,228,211,0,2.905,OkamotoMasahiro,001,2018_Dec_05_1118,verb_impression,59.815231418320586,
聞く,近づきがたい-人懐っこい,4,6,0,229,229,103,3,2.253,OkamotoMasahiro,001,2018_Dec_05_1118,verb_impression,59.815231418320586,
許す,沈んだ-うきうきした,12,14,0,230,230,271,0,2.91,OkamotoMasahiro,001,2018_Dec_05_1118,verb_impression,59.815231418320586,
合う,責任感がない-責任感がある,8,12,0,231,231,227,0,3.252,OkamotoMasahiro,001,2018_Dec_05_1118,verb_impression,59.815231418320586,
断る,人がわるい-人が良い,2,5,0,232,232,81,0,8.951,OkamotoMasahiro,001,2018_Dec_05_1118,verb_impression,59.815231418320586,
取り組む,無気力だ-意欲的だ,17,36,0,233,233,716,3,10.885,OkamotoMasahiro,001,2018_Dec_05_1118,verb_impression,59.815231418320586,
話しかける,近づきがたい-人懐っこい,4,25,0,234,234,483,3,1.769,OkamotoMasahiro,001,2018_Dec_05_1118,verb_impression,59.815231418320586,
取り組む,消極的だ-積極的だ,1,36,0,235,235,700,3,3.345,OkamotoMasahiro,001,2018_Dec_05_1118,verb_impression,59.815231418320586,
参加する,感じが悪い-感じが良い,14,48,0,236,236,953,1,2.057,OkamotoMasahiro,001,2018_Dec_05_1118,verb_impression,59.815231418320586,
親しむ,親しみにくい-親しみやすい,16,20,0,237,237,395,1,3.153,OkamotoMasahiro,001,2018_Dec_05_1118,verb_impression,59.815231418320586,
歌う,近づきがたい-人懐っこい,4,57,0,238,238,1123,1,1.987,OkamotoMasahiro,001,2018_Dec_05_1118,verb_impression,59.815231418320586,
頼む,不親切だ-親切だ,20,7,0,239,239,139,1,3.441,OkamotoMasahiro,001,2018_Dec_05_1118,verb_impression,59.815231418320586,
引き受ける,心が狭い-心が広い,6,11,0,240,240,205,3,3.508,OkamotoMasahiro,001,2018_Dec_05_1118,verb_impression,59.815231418320586,
貸す,恥知らずだ-恥ずかしがりだ,10,9,0,241,241,169,0,1.82,OkamotoMasahiro,001,2018_Dec_05_1118,verb_impression,59.815231418320586,
決める,無気力だ-意欲的だ,17,43,0,242,242,856,2,4.317,OkamotoMasahiro,001,2018_Dec_05_1118,verb_impression,59.815231418320586,
発言する,親しみにくい-親しみやすい,16,29,0,243,243,575,1,2.623,OkamotoMasahiro,001,2018_Dec_05_1118,verb_impression,59.815231418320586,
入る,無気力だ-意欲的だ,17,35,0,244,244,696,0,9.307,OkamotoMasahiro,001,2018_Dec_05_1118,verb_impression,59.815231418320586,
行動する,軽率だ-慎重だ,9,31,0,245,245,608,0,12.875,OkamotoMasahiro,001,2018_Dec_05_1118,verb_impression,59.815231418320586,
見下す,生意気だ-生意気でない,3,22,0,246,246,422,-3,3.106,OkamotoMasahiro,001,2018_Dec_05_1118,verb_impression,59.815231418320586,
話す,軽薄だ-重厚だ,11,18,0,247,247,350,0,3.993,OkamotoMasahiro,001,2018_Dec_05_1118,verb_impression,59.815231418320586,
旅行する,憎らしい-可愛らしい,5,38,0,248,248,744,1,5.542,OkamotoMasahiro,001,2018_Dec_05_1118,verb_impression,59.815231418320586,
教える,沈んだ-うきうきした,12,17,0,249,249,331,1,7.574,OkamotoMasahiro,001,2018_Dec_05_1118,verb_impression,59.815231418320586,
目立つ,感じが悪い-感じが良い,14,46,0,250,250,913,0,4.627,OkamotoMasahiro,001,2018_Dec_05_1118,verb_impression,59.815231418320586,
断る,無気力だ-意欲的だ,17,5,0,251,251,96,-1,2.373,OkamotoMasahiro,001,2018_Dec_05_1118,verb_impression,59.815231418320586,
心配する,無気力だ-意欲的だ,17,8,0,252,252,156,-1,18.363,OkamotoMasahiro,001,2018_Dec_05_1118,verb_impression,59.815231418320586,
卑下する,自信がない-自信がある,18,50,0,253,253,997,-3,2.768,OkamotoMasahiro,001,2018_Dec_05_1118,verb_impression,59.815231418320586,
見下す,感じが悪い-感じが良い,14,22,0,254,254,433,-3,13.954,OkamotoMasahiro,001,2018_Dec_05_1118,verb_impression,59.815231418320586,
落ち込む,消極的だ-積極的だ,1,51,0,255,255,1000,-2,4.891,OkamotoMasahiro,001,2018_Dec_05_1118,verb_impression,59.815231418320586,
気に入る,憎らしい-可愛らしい,5,2,0,256,256,24,2,2.77,OkamotoMasahiro,001,2018_Dec_05_1118,verb_impression,59.815231418320586,
見下す,不親切だ-親切だ,20,22,0,257,257,439,-2,3.14,OkamotoMasahiro,001,2018_Dec_05_1118,verb_impression,59.815231418320586,
心配する,軽薄だ-重厚だ,11,8,0,258,258,150,1,3.908,OkamotoMasahiro,001,2018_Dec_05_1118,verb_impression,59.815231418320586,
確認する,消極的だ-積極的だ,1,59,0,259,259,1160,0,3.843,OkamotoMasahiro,001,2018_Dec_05_1118,verb_impression,59.815231418320586,
入る,生意気だ-生意気でない,3,35,0,260,260,682,0,1.996,OkamotoMasahiro,001,2018_Dec_05_1118,verb_impression,59.815231418320586,
見下す,親しみにくい-親しみやすい,16,22,0,261,261,435,-3,2.583,OkamotoMasahiro,001,2018_Dec_05_1118,verb_impression,59.815231418320586,
考える,生意気だ-生意気でない,3,32,0,262,262,622,0,27.186,OkamotoMasahiro,001,2018_Dec_05_1118,verb_impression,59.815231418320586,
近づく,卑屈だ-堂々とした,13,52,0,263,263,1032,0,2.937,OkamotoMasahiro,001,2018_Dec_05_1118,verb_impression,59.815231418320586,
言う,不親切だ-親切だ,20,23,0,264,264,459,0,1.526,OkamotoMasahiro,001,2018_Dec_05_1118,verb_impression,59.815231418320586,
許す,恥知らずだ-恥ずかしがりだ,10,14,0,265,265,269,0,3.976,OkamotoMasahiro,001,2018_Dec_05_1118,verb_impression,59.815231418320586,
心配する,不親切だ-親切だ,20,8,0,266,266,159,1,3.054,OkamotoMasahiro,001,2018_Dec_05_1118,verb_impression,59.815231418320586,
許す,不親切だ-親切だ,20,14,0,267,267,279,3,3.579,OkamotoMasahiro,001,2018_Dec_05_1118,verb_impression,59.815231418320586,
言う,親しみにくい-親しみやすい,16,23,0,268,268,455,1,21.951,OkamotoMasahiro,001,2018_Dec_05_1118,verb_impression,59.815231418320586,
近寄る,親しみにくい-親しみやすい,16,45,0,269,269,895,3,11.463,OkamotoMasahiro,001,2018_Dec_05_1118,verb_impression,59.815231418320586,
交流する,感じが悪い-感じが良い,14,33,0,270,270,653,3,3.67,OkamotoMasahiro,001,2018_Dec_05_1118,verb_impression,59.815231418320586,
任す,心が狭い-心が広い,6,60,0,271,271,1185,3,2.635,OkamotoMasahiro,001,2018_Dec_05_1118,verb_impression,59.815231418320586,
任す,沈んだ-うきうきした,12,60,0,272,272,1191,0,31.374,OkamotoMasahiro,001,2018_Dec_05_1118,verb_impression,59.815231418320586,
考える,近づきがたい-人懐っこい,4,32,0,273,273,623,0,2.621,OkamotoMasahiro,001,2018_Dec_05_1118,verb_impression,59.815231418320586,
立候補する,非社交的だ-社交的だ,7,54,0,274,274,1066,3,5.39,OkamotoMasahiro,001,2018_Dec_05_1118,verb_impression,59.815231418320586,
飲む,卑屈だ-堂々とした,13,30,0,275,275,592,0,17.389,OkamotoMasahiro,001,2018_Dec_05_1118,verb_impression,59.815231418320586,
頼む,親しみにくい-親しみやすい,16,7,0,276,276,135,2,5.205,OkamotoMasahiro,001,2018_Dec_05_1118,verb_impression,59.815231418320586,
貸す,軽率だ-慎重だ,9,9,0,277,277,168,-1,11.475,OkamotoMasahiro,001,2018_Dec_05_1118,verb_impression,59.815231418320586,
進む,人がわるい-人が良い,2,37,0,278,278,721,1,3.752,OkamotoMasahiro,001,2018_Dec_05_1118,verb_impression,59.815231418320586,
立候補する,近づきがたい-人懐っこい,4,54,0,279,279,1063,1,2.536,OkamotoMasahiro,001,2018_Dec_05_1118,verb_impression,59.815231418320586,
仕事する,非社交的だ-社交的だ,7,40,0,280,280,786,0,2.987,OkamotoMasahiro,001,2018_Dec_05_1118,verb_impression,59.815231418320586,
近寄る,近づきがたい-人懐っこい,4,45,0,281,281,883,3,2.502,OkamotoMasahiro,001,2018_Dec_05_1118,verb_impression,59.815231418320586,
出る,憎らしい-可愛らしい,5,44,0,282,282,864,0,1.924,OkamotoMasahiro,001,2018_Dec_05_1118,verb_impression,59.815231418320586,
決める,憎らしい-可愛らしい,5,43,0,283,283,844,0,2.359,OkamotoMasahiro,001,2018_Dec_05_1118,verb_impression,59.815231418320586,
心配する,無分別だ-分別がある,15,8,0,284,284,154,2,6.239,OkamotoMasahiro,001,2018_Dec_05_1118,verb_impression,59.815231418320586,
接する,沈んだ-うきうきした,12,3,0,285,285,51,2,2.468,OkamotoMasahiro,001,2018_Dec_05_1118,verb_impression,59.815231418320586,
見下す,憎らしい-可愛らしい,5,22,0,286,286,424,-3,7.623,OkamotoMasahiro,001,2018_Dec_05_1118,verb_impression,59.815231418320586,
出る,感じが悪い-感じが良い,14,44,0,287,287,873,0,2.106,OkamotoMasahiro,001,2018_Dec_05_1118,verb_impression,59.815231418320586,
話しかける,短気だ-気長だ,19,25,0,288,288,498,1,6.556,OkamotoMasahiro,001,2018_Dec_05_1118,verb_impression,59.815231418320586,
連絡する,心が狭い-心が広い,6,1,0,289,289,5,1,2.008,OkamotoMasahiro,001,2018_Dec_05_1118,verb_impression,59.815231418320586,
近づく,無気力だ-意欲的だ,17,52,0,290,290,1036,3,23.589,OkamotoMasahiro,001,2018_Dec_05_1118,verb_impression,59.815231418320586,
言う,感じが悪い-感じが良い,14,23,0,291,291,453,0,1.772,OkamotoMasahiro,001,2018_Dec_05_1118,verb_impression,59.815231418320586,
受け入れる,近づきがたい-人懐っこい,4,13,0,292,292,243,3,7.384,OkamotoMasahiro,001,2018_Dec_05_1118,verb_impression,59.815231418320586,
飲む,憎らしい-可愛らしい,5,30,0,293,293,584,0,1.674,OkamotoMasahiro,001,2018_Dec_05_1118,verb_impression,59.815231418320586,
行う,心が狭い-心が広い,6,34,0,294,294,665,1,18.602,OkamotoMasahiro,001,2018_Dec_05_1118,verb_impression,59.815231418320586,
入る,自信がない-自信がある,18,35,0,295,295,697,0,6.791,OkamotoMasahiro,001,2018_Dec_05_1118,verb_impression,59.815231418320586,
聞く,無気力だ-意欲的だ,17,6,0,296,296,116,2,2.155,OkamotoMasahiro,001,2018_Dec_05_1118,verb_impression,59.815231418320586,
目立つ,責任感がない-責任感がある,8,46,0,297,297,907,0,8.922,OkamotoMasahiro,001,2018_Dec_05_1118,verb_impression,59.815231418320586,
落ち込む,憎らしい-可愛らしい,5,51,0,298,298,1004,1,2.49,OkamotoMasahiro,001,2018_Dec_05_1118,verb_impression,59.815231418320586,
確認する,近づきがたい-人懐っこい,4,59,0,299,299,1163,0,3.025,OkamotoMasahiro,001,2018_Dec_05_1118,verb_impression,59.815231418320586,
話す,責任感がない-責任感がある,8,18,0,300,300,347,0,1.657,OkamotoMasahiro,001,2018_Dec_05_1118,verb_impression,59.815231418320586,
対応する,感じが悪い-感じが良い,14,4,0,301,301,73,2,2.037,OkamotoMasahiro,001,2018_Dec_05_1118,verb_impression,59.815231418320586,
断る,責任感がない-責任感がある,8,5,0,302,302,87,1,3.52,OkamotoMasahiro,001,2018_Dec_05_1118,verb_impression,59.815231418320586,
持つ,親しみにくい-親しみやすい,16,27,0,303,303,535,0,2.509,OkamotoMasahiro,001,2018_Dec_05_1118,verb_impression,59.815231418320586,
教える,親しみにくい-親しみやすい,16,17,0,304,304,335,1,4.71,OkamotoMasahiro,001,2018_Dec_05_1118,verb_impression,59.815231418320586,
歌う,無分別だ-分別がある,15,57,0,305,305,1134,0,1.741,OkamotoMasahiro,001,2018_Dec_05_1118,verb_impression,59.815231418320586,
送る,不親切だ-親切だ,20,15,0,306,306,299,1,1.824,OkamotoMasahiro,001,2018_Dec_05_1118,verb_impression,59.815231418320586,
接する,非社交的だ-社交的だ,7,3,0,307,307,46,3,2.306,OkamotoMasahiro,001,2018_Dec_05_1118,verb_impression,59.815231418320586,
与える,消極的だ-積極的だ,1,58,0,308,308,1140,3,1.801,OkamotoMasahiro,001,2018_Dec_05_1118,verb_impression,59.815231418320586,
立候補する,人がわるい-人が良い,2,54,0,309,309,1061,1,2.137,OkamotoMasahiro,001,2018_Dec_05_1118,verb_impression,59.815231418320586,
目立つ,非社交的だ-社交的だ,7,46,0,310,310,906,3,2.391,OkamotoMasahiro,001,2018_Dec_05_1118,verb_impression,59.815231418320586,
相談する,無分別だ-分別がある,15,10,0,311,311,194,1,2.722,OkamotoMasahiro,001,2018_Dec_05_1118,verb_impression,59.815231418320586,
発言する,感じが悪い-感じが良い,14,29,0,312,312,573,0,2.086,OkamotoMasahiro,001,2018_Dec_05_1118,verb_impression,59.815231418320586,
頼む,短気だ-気長だ,19,7,0,313,313,138,1,2.672,OkamotoMasahiro,001,2018_Dec_05_1118,verb_impression,59.815231418320586,
立候補する,沈んだ-うきうきした,12,54,0,314,314,1071,2,2.822,OkamotoMasahiro,001,2018_Dec_05_1118,verb_impression,59.815231418320586,
貸す,責任感がない-責任感がある,8,9,0,315,315,167,0,2.702,OkamotoMasahiro,001,2018_Dec_05_1118,verb_impression,59.815231418320586,
困る,自信がない-自信がある,18,21,0,316,316,417,-2,2.472,OkamotoMasahiro,001,2018_Dec_05_1118,verb_impression,59.815231418320586,
沈む,憎らしい-可愛らしい,5,56,0,317,317,1104,0,5.025,OkamotoMasahiro,001,2018_Dec_05_1118,verb_impression,59.815231418320586,
歌う,無気力だ-意欲的だ,17,57,0,318,318,1136,2,2.655,OkamotoMasahiro,001,2018_Dec_05_1118,verb_impression,59.815231418320586,
感じる,感じが悪い-感じが良い,14,16,0,319,319,313,0,3.889,OkamotoMasahiro,001,2018_Dec_05_1118,verb_impression,59.815231418320586,
聞く,責任感がない-責任感がある,8,6,0,320,320,107,1,3.409,OkamotoMasahiro,001,2018_Dec_05_1118,verb_impression,59.815231418320586,
飲む,近づきがたい-人懐っこい,4,30,0,321,321,583,0,1.622,OkamotoMasahiro,001,2018_Dec_05_1118,verb_impression,59.815231418320586,
教える,憎らしい-可愛らしい,5,17,0,322,322,324,1,3.34,OkamotoMasahiro,001,2018_Dec_05_1118,verb_impression,59.815231418320586,
休む,非社交的だ-社交的だ,7,49,0,323,323,966,0,3.876,OkamotoMasahiro,001,2018_Dec_05_1118,verb_impression,59.815231418320586,
立候補する,軽薄だ-重厚だ,11,54,0,324,324,1070,0,12.059,OkamotoMasahiro,001,2018_Dec_05_1118,verb_impression,59.815231418320586,
活動する,不親切だ-親切だ,20,42,0,325,325,839,1,2.956,OkamotoMasahiro,001,2018_Dec_05_1118,verb_impression,59.815231418320586,
評価する,心が狭い-心が広い,6,28,0,326,326,545,0,2.506,OkamotoMasahiro,001,2018_Dec_05_1118,verb_impression,59.815231418320586,
参加する,沈んだ-うきうきした,12,48,0,327,327,951,1,1.675,OkamotoMasahiro,001,2018_Dec_05_1118,verb_impression,59.815231418320586,
聞く,卑屈だ-堂々とした,13,6,0,328,328,112,2,2.02,OkamotoMasahiro,001,2018_Dec_05_1118,verb_impression,59.815231418320586,
対応する,恥知らずだ-恥ずかしがりだ,10,4,0,329,329,69,0,2.51,OkamotoMasahiro,001,2018_Dec_05_1118,verb_impression,59.815231418320586,
交流する,無分別だ-分別がある,15,33,0,330,330,654,0,2.071,OkamotoMasahiro,001,2018_Dec_05_1118,verb_impression,59.815231418320586,
参加する,無分別だ-分別がある,15,48,0,331,331,954,0,2.147,OkamotoMasahiro,001,2018_Dec_05_1118,verb_impression,59.815231418320586,
仕事する,軽率だ-慎重だ,9,40,0,332,332,788,1,2.157,OkamotoMasahiro,001,2018_Dec_05_1118,verb_impression,59.815231418320586,
持つ,憎らしい-可愛らしい,5,27,0,333,333,524,0,1.84,OkamotoMasahiro,001,2018_Dec_05_1118,verb_impression,59.815231418320586,
交流する,親しみにくい-親しみやすい,16,33,0,334,334,655,2,2.172,OkamotoMasahiro,001,2018_Dec_05_1118,verb_impression,59.815231418320586,
気に入る,軽率だ-慎重だ,9,2,0,335,335,28,0,1.835,OkamotoMasahiro,001,2018_Dec_05_1118,verb_impression,59.815231418320586,
接する,親しみにくい-親しみやすい,16,3,0,336,336,55,2,1.772,OkamotoMasahiro,001,2018_Dec_05_1118,verb_impression,59.815231418320586,
見下す,軽薄だ-重厚だ,11,22,0,337,337,430,0,2.861,OkamotoMasahiro,001,2018_Dec_05_1118,verb_impression,59.815231418320586,
考える,恥知らずだ-恥ずかしがりだ,10,32,0,338,338,629,0,2.092,OkamotoMasahiro,001,2018_Dec_05_1118,verb_impression,59.815231418320586,
評価する,憎らしい-可愛らしい,5,28,0,339,339,544,-1,2.999,OkamotoMasahiro,001,2018_Dec_05_1118,verb_impression,59.815231418320586,
楽しむ,非社交的だ-社交的だ,7,39,0,340,340,766,2,2.09,OkamotoMasahiro,001,2018_Dec_05_1118,verb_impression,59.815231418320586,
飲む,非社交的だ-社交的だ,7,30,0,341,341,586,0,17.878,OkamotoMasahiro,001,2018_Dec_05_1118,verb_impression,59.815231418320586,
心配する,憎らしい-可愛らしい,5,8,0,342,342,144,0,6.771,OkamotoMasahiro,001,2018_Dec_05_1118,verb_impression,59.815231418320586,
受け入れる,親しみにくい-親しみやすい,16,13,0,343,343,255,3,2.021,OkamotoMasahiro,001,2018_Dec_05_1118,verb_impression,59.815231418320586,
受け入れる,無気力だ-意欲的だ,17,13,0,344,344,256,0,2.395,OkamotoMasahiro,001,2018_Dec_05_1118,verb_impression,59.815231418320586,
務める,人がわるい-人が良い,2,53,0,345,345,1041,2,1.84,OkamotoMasahiro,001,2018_Dec_05_1118,verb_impression,59.815231418320586,
楽しむ,無分別だ-分別がある,15,39,0,346,346,774,0,2.773,OkamotoMasahiro,001,2018_Dec_05_1118,verb_impression,59.815231418320586,
発表する,消極的だ-積極的だ,1,55,0,347,347,1080,2,3.238,OkamotoMasahiro,001,2018_Dec_05_1118,verb_impression,59.815231418320586,
進む,責任感がない-責任感がある,8,37,0,348,348,727,1,2.072,OkamotoMasahiro,001,2018_Dec_05_1118,verb_impression,59.815231418320586,
取り組む,生意気だ-生意気でない,3,36,0,349,349,702,0,3.972,OkamotoMasahiro,001,2018_Dec_05_1118,verb_impression,59.815231418320586,
楽しむ,責任感がない-責任感がある,8,39,0,350,350,767,0,4.088,OkamotoMasahiro,001,2018_Dec_05_1118,verb_impression,59.815231418320586,
近づく,不親切だ-親切だ,20,52,0,351,351,1039,1,3.241,OkamotoMasahiro,001,2018_Dec_05_1118,verb_impression,59.815231418320586,
入る,卑屈だ-堂々とした,13,35,0,352,352,692,0,3.091,OkamotoMasahiro,001,2018_Dec_05_1118,verb_impression,59.815231418320586,
断る,短気だ-気長だ,19,5,0,353,353,98,-1,2.86,OkamotoMasahiro,001,2018_Dec_05_1118,verb_impression,59.815231418320586,
心配する,責任感がない-責任感がある,8,8,0,354,354,147,1,2.405,OkamotoMasahiro,001,2018_Dec_05_1118,verb_impression,59.815231418320586,
行う,自信がない-自信がある,18,34,0,355,355,677,2,1.788,OkamotoMasahiro,001,2018_Dec_05_1118,verb_impression,59.815231418320586,
連絡する,沈んだ-うきうきした,12,1,0,356,356,11,1,5.089,OkamotoMasahiro,001,2018_Dec_05_1118,verb_impression,59.815231418320586,
気に入る,心が狭い-心が広い,6,2,0,357,357,25,2,1.989,OkamotoMasahiro,001,2018_Dec_05_1118,verb_impression,59.815231418320586,
計画する,無分別だ-分別がある,15,47,0,358,358,934,2,2.223,OkamotoMasahiro,001,2018_Dec_05_1118,verb_impression,59.815231418320586,
目立つ,無分別だ-分別がある,15,46,0,359,359,914,0,1.898,OkamotoMasahiro,001,2018_Dec_05_1118,verb_impression,59.815231418320586,
行く,不親切だ-親切だ,20,26,0,360,360,519,0,2.303,OkamotoMasahiro,001,2018_Dec_05_1118,verb_impression,59.815231418320586,
持つ,軽薄だ-重厚だ,11,27,0,361,361,530,0,14.968,OkamotoMasahiro,001,2018_Dec_05_1118,verb_impression,59.815231418320586,
困る,短気だ-気長だ,19,21,0,362,362,418,0,2.628,OkamotoMasahiro,001,2018_Dec_05_1118,verb_impression,59.815231418320586,
対応する,憎らしい-可愛らしい,5,4,0,363,363,64,1,3.007,OkamotoMasahiro,001,2018_Dec_05_1118,verb_impression,59.815231418320586,
行う,軽率だ-慎重だ,9,34,0,364,364,668,0,3.646,OkamotoMasahiro,001,2018_Dec_05_1118,verb_impression,59.815231418320586,
助ける,軽率だ-慎重だ,9,24,0,365,365,468,0,3.487,OkamotoMasahiro,001,2018_Dec_05_1118,verb_impression,59.815231418320586,
持つ,卑屈だ-堂々とした,13,27,0,366,366,532,0,1.339,OkamotoMasahiro,001,2018_Dec_05_1118,verb_impression,59.815231418320586,
発表する,責任感がない-責任感がある,8,55,0,367,367,1087,0,23.366,OkamotoMasahiro,001,2018_Dec_05_1118,verb_impression,59.815231418320586,
活動する,感じが悪い-感じが良い,14,42,0,368,368,833,1,2.453,OkamotoMasahiro,001,2018_Dec_05_1118,verb_impression,59.815231418320586,
任す,短気だ-気長だ,19,60,0,369,369,1198,2,2.708,OkamotoMasahiro,001,2018_Dec_05_1118,verb_impression,59.815231418320586,
評価する,責任感がない-責任感がある,8,28,0,370,370,547,0,11.821,OkamotoMasahiro,001,2018_Dec_05_1118,verb_impression,59.815231418320586,
引き受ける,憎らしい-可愛らしい,5,11,0,371,371,204,1,3.37,OkamotoMasahiro,001,2018_Dec_05_1118,verb_impression,59.815231418320586,
許す,無気力だ-意欲的だ,17,14,0,372,372,276,0,2.955,OkamotoMasahiro,001,2018_Dec_05_1118,verb_impression,59.815231418320586,
許す,近づきがたい-人懐っこい,4,14,0,373,373,263,2,2.445,OkamotoMasahiro,001,2018_Dec_05_1118,verb_impression,59.815231418320586,
参加する,責任感がない-責任感がある,8,48,0,374,374,947,0,2.336,OkamotoMasahiro,001,2018_Dec_05_1118,verb_impression,59.815231418320586,
行く,無気力だ-意欲的だ,17,26,0,375,375,516,2,2.337,OkamotoMasahiro,001,2018_Dec_05_1118,verb_impression,59.815231418320586,
助ける,不親切だ-親切だ,20,24,0,376,376,479,3,1.955,OkamotoMasahiro,001,2018_Dec_05_1118,verb_impression,59.815231418320586,
歌う,非社交的だ-社交的だ,7,57,0,377,377,1126,2,3.108,OkamotoMasahiro,001,2018_Dec_05_1118,verb_impression,59.815231418320586,
入る,消極的だ-積極的だ,1,35,0,378,378,680,2,2.027,OkamotoMasahiro,001,2018_Dec_05_1118,verb_impression,59.815231418320586,
近づく,沈んだ-うきうきした,12,52,0,379,379,1031,1,4.12,OkamotoMasahiro,001,2018_Dec_05_1118,verb_impression,59.815231418320586,
落ち込む,親しみにくい-親しみやすい,16,51,0,380,380,1015,0,13.802,OkamotoMasahiro,001,2018_Dec_05_1118,verb_impression,59.815231418320586,
入る,人がわるい-人が良い,2,35,0,381,381,681,0,3.622,OkamotoMasahiro,001,2018_Dec_05_1118,verb_impression,59.815231418320586,
怒る,沈んだ-うきうきした,12,19,0,382,382,371,-1,5.12,OkamotoMasahiro,001,2018_Dec_05_1118,verb_impression,59.815231418320586,
許す,責任感がない-責任感がある,8,14,0,383,383,267,0,4.005,OkamotoMasahiro,001,2018_Dec_05_1118,verb_impression,59.815231418320586,
飲む,短気だ-気長だ,19,30,0,384,384,598,0,1.907,OkamotoMasahiro,001,2018_Dec_05_1118,verb_impression,59.815231418320586,
立候補する,生意気だ-生意気でない,3,54,0,385,385,1062,0,2.309,OkamotoMasahiro,001,2018_Dec_05_1118,verb_impression,59.815231418320586,
行く,消極的だ-積極的だ,1,26,0,386,386,500,3,3.277,OkamotoMasahiro,001,2018_Dec_05_1118,verb_impression,59.815231418320586,
買う,無気力だ-意欲的だ,17,41,0,387,387,816,2,2.856,OkamotoMasahiro,001,2018_Dec_05_1118,verb_impression,59.815231418320586,
言う,人がわるい-人が良い,2,23,0,388,388,441,0,1.841,OkamotoMasahiro,001,2018_Dec_05_1118,verb_impression,59.815231418320586,
休む,近づきがたい-人懐っこい,4,49,0,389,389,963,0,1.904,OkamotoMasahiro,001,2018_Dec_05_1118,verb_impression,59.815231418320586,
発言する,沈んだ-うきうきした,12,29,0,390,390,571,1,2.554,OkamotoMasahiro,001,2018_Dec_05_1118,verb_impression,59.815231418320586,
接する,心が狭い-心が広い,6,3,0,391,391,45,1,3.791,OkamotoMasahiro,001,2018_Dec_05_1118,verb_impression,59.815231418320586,
許す,生意気だ-生意気でない,3,14,0,392,392,262,3,2.707,OkamotoMasahiro,001,2018_Dec_05_1118,verb_impression,59.815231418320586,
話しかける,消極的だ-積極的だ,1,25,0,393,393,480,3,2.138,OkamotoMasahiro,001,2018_Dec_05_1118,verb_impression,59.815231418320586,
落ち込む,恥知らずだ-恥ずかしがりだ,10,51,0,394,394,1009,1,5.407,OkamotoMasahiro,001,2018_Dec_05_1118,verb_impression,59.815231418320586,
行う,沈んだ-うきうきした,12,34,0,395,395,671,1,4.021,OkamotoMasahiro,001,2018_Dec_05_1118,verb_impression,59.815231418320586,
助ける,消極的だ-積極的だ,1,24,0,396,396,460,2,2.564,OkamotoMasahiro,001,2018_Dec_05_1118,verb_impression,59.815231418320586,
楽しむ,憎らしい-可愛らしい,5,39,0,397,397,764,2,2.869,OkamotoMasahiro,001,2018_Dec_05_1118,verb_impression,59.815231418320586,
考える,憎らしい-可愛らしい,5,32,0,398,398,624,0,5.865,OkamotoMasahiro,001,2018_Dec_05_1118,verb_impression,59.815231418320586,
合う,感じが悪い-感じが良い,14,12,0,399,399,233,2,1.837,OkamotoMasahiro,001,2018_Dec_05_1118,verb_impression,59.815231418320586,
受け入れる,軽率だ-慎重だ,9,13,0,400,400,248,0,72.651,OkamotoMasahiro,001,2018_Dec_05_1118,verb_impression,59.815231418320586,
断る,非社交的だ-社交的だ,7,5,0,401,401,86,-2,36.456,OkamotoMasahiro,001,2018_Dec_05_1118,verb_impression,59.815231418320586,
目立つ,心が狭い-心が広い,6,46,0,402,402,905,0,6.227,OkamotoMasahiro,001,2018_Dec_05_1118,verb_impression,59.815231418320586,
沈む,消極的だ-積極的だ,1,56,0,403,403,1100,-1,2.277,OkamotoMasahiro,001,2018_Dec_05_1118,verb_impression,59.815231418320586,
行動する,非社交的だ-社交的だ,7,31,0,404,404,606,2,2.423,OkamotoMasahiro,001,2018_Dec_05_1118,verb_impression,59.815231418320586,
沈む,親しみにくい-親しみやすい,16,56,0,405,405,1115,-1,5.557,OkamotoMasahiro,001,2018_Dec_05_1118,verb_impression,59.815231418320586,
飲む,無分別だ-分別がある,15,30,0,406,406,594,0,1.675,OkamotoMasahiro,001,2018_Dec_05_1118,verb_impression,59.815231418320586,
出る,自信がない-自信がある,18,44,0,407,407,877,2,3.47,OkamotoMasahiro,001,2018_Dec_05_1118,verb_impression,59.815231418320586,
見下す,心が狭い-心が広い,6,22,0,408,408,425,-2,2.891,OkamotoMasahiro,001,2018_Dec_05_1118,verb_impression,59.815231418320586,
困る,非社交的だ-社交的だ,7,21,0,409,409,406,0,2.991,OkamotoMasahiro,001,2018_Dec_05_1118,verb_impression,59.815231418320586,
発言する,人がわるい-人が良い,2,29,0,410,410,561,0,2.04,OkamotoMasahiro,001,2018_Dec_05_1118,verb_impression,59.815231418320586,
教える,無気力だ-意欲的だ,17,17,0,411,411,336,2,2.123,OkamotoMasahiro,001,2018_Dec_05_1118,verb_impression,59.815231418320586,
歌う,憎らしい-可愛らしい,5,57,0,412,412,1124,2,1.672,OkamotoMasahiro,001,2018_Dec_05_1118,verb_impression,59.815231418320586,
発言する,無気力だ-意欲的だ,17,29,0,413,413,576,2,2.039,OkamotoMasahiro,001,2018_Dec_05_1118,verb_impression,59.815231418320586,
相談する,心が狭い-心が広い,6,10,0,414,414,185,1,4.651,OkamotoMasahiro,001,2018_Dec_05_1118,verb_impression,59.815231418320586,
話す,消極的だ-積極的だ,1,18,0,415,415,340,2,11.444,OkamotoMasahiro,001,2018_Dec_05_1118,verb_impression,59.815231418320586,
沈む,人がわるい-人が良い,2,56,0,416,416,1101,0,1.954,OkamotoMasahiro,001,2018_Dec_05_1118,verb_impression,59.815231418320586,
感じる,消極的だ-積極的だ,1,16,0,417,417,300,0,7.491,OkamotoMasahiro,001,2018_Dec_05_1118,verb_impression,59.815231418320586,
送る,自信がない-自信がある,18,15,0,418,418,297,0,2.521,OkamotoMasahiro,001,2018_Dec_05_1118,verb_impression,59.815231418320586,
頼む,感じが悪い-感じが良い,14,7,0,419,419,133,1,2.306,OkamotoMasahiro,001,2018_Dec_05_1118,verb_impression,59.815231418320586,
与える,生意気だ-生意気でない,3,58,0,420,420,1142,3,2.94,OkamotoMasahiro,001,2018_Dec_05_1118,verb_impression,59.815231418320586,
貸す,自信がない-自信がある,18,9,0,421,421,177,1,6.072,OkamotoMasahiro,001,2018_Dec_05_1118,verb_impression,59.815231418320586,
対応する,無気力だ-意欲的だ,17,4,0,422,422,76,2,2.222,OkamotoMasahiro,001,2018_Dec_05_1118,verb_impression,59.815231418320586,
行く,心が狭い-心が広い,6,26,0,423,423,505,1,4.409,OkamotoMasahiro,001,2018_Dec_05_1118,verb_impression,59.815231418320586,
話しかける,心が狭い-心が広い,6,25,0,424,424,485,2,10.177,OkamotoMasahiro,001,2018_Dec_05_1118,verb_impression,59.815231418320586,
気に入る,不親切だ-親切だ,20,2,0,425,425,39,1,1.755,OkamotoMasahiro,001,2018_Dec_05_1118,verb_impression,59.815231418320586,
話す,心が狭い-心が広い,6,18,0,426,426,345,1,2.886,OkamotoMasahiro,001,2018_Dec_05_1118,verb_impression,59.815231418320586,
評価する,自信がない-自信がある,18,28,0,427,427,557,2,2.593,OkamotoMasahiro,001,2018_Dec_05_1118,verb_impression,59.815231418320586,
評価する,非社交的だ-社交的だ,7,28,0,428,428,546,0,2.909,OkamotoMasahiro,001,2018_Dec_05_1118,verb_impression,59.815231418320586,
連絡する,軽薄だ-重厚だ,11,1,0,429,429,10,0,1.71,OkamotoMasahiro,001,2018_Dec_05_1118,verb_impression,59.815231418320586,
卑下する,卑屈だ-堂々とした,13,50,0,430,430,992,-3,2.129,OkamotoMasahiro,001,2018_Dec_05_1118,verb_impression,59.815231418320586,
気に入る,親しみにくい-親しみやすい,16,2,0,431,431,35,1,5.22,OkamotoMasahiro,001,2018_Dec_05_1118,verb_impression,59.815231418320586,
合う,自信がない-自信がある,18,12,0,432,432,237,0,4.608,OkamotoMasahiro,001,2018_Dec_05_1118,verb_impression,59.815231418320586,
買う,無分別だ-分別がある,15,41,0,433,433,814,0,1.756,OkamotoMasahiro,001,2018_Dec_05_1118,verb_impression,59.815231418320586,
歌う,卑屈だ-堂々とした,13,57,0,434,434,1132,2,1.709,OkamotoMasahiro,001,2018_Dec_05_1118,verb_impression,59.815231418320586,
休む,卑屈だ-堂々とした,13,49,0,435,435,972,0,3.029,OkamotoMasahiro,001,2018_Dec_05_1118,verb_impression,59.815231418320586,
休む,憎らしい-可愛らしい,5,49,0,436,436,964,0,1.614,OkamotoMasahiro,001,2018_Dec_05_1118,verb_impression,59.815231418320586,
務める,心が狭い-心が広い,6,53,0,437,437,1045,0,2.108,OkamotoMasahiro,001,2018_Dec_05_1118,verb_impression,59.815231418320586,
参加する,消極的だ-積極的だ,1,48,0,438,438,940,2,10.467,OkamotoMasahiro,001,2018_Dec_05_1118,verb_impression,59.815231418320586,
決める,恥知らずだ-恥ずかしがりだ,10,43,0,439,439,849,0,2.639,OkamotoMasahiro,001,2018_Dec_05_1118,verb_impression,59.815231418320586,
休む,無分別だ-分別がある,15,49,0,440,440,974,0,1.673,OkamotoMasahiro,001,2018_Dec_05_1118,verb_impression,59.815231418320586,
出る,責任感がない-責任感がある,8,44,0,441,441,867,0,3.141,OkamotoMasahiro,001,2018_Dec_05_1118,verb_impression,59.815231418320586,
送る,軽薄だ-重厚だ,11,15,0,442,442,290,0,20.374,OkamotoMasahiro,001,2018_Dec_05_1118,verb_impression,59.815231418320586,
出る,短気だ-気長だ,19,44,0,443,443,878,-1,6.322,OkamotoMasahiro,001,2018_Dec_05_1118,verb_impression,59.815231418320586,
飲む,人がわるい-人が良い,2,30,0,444,444,581,0,1.655,OkamotoMasahiro,001,2018_Dec_05_1118,verb_impression,59.815231418320586,
持つ,心が狭い-心が広い,6,27,0,445,445,525,0,10.727,OkamotoMasahiro,001,2018_Dec_05_1118,verb_impression,59.815231418320586,
助ける,非社交的だ-社交的だ,7,24,0,446,446,466,2,11.857,OkamotoMasahiro,001,2018_Dec_05_1118,verb_impression,59.815231418320586,
休む,短気だ-気長だ,19,49,0,447,447,978,1,9.556,OkamotoMasahiro,001,2018_Dec_05_1118,verb_impression,59.815231418320586,
評価する,無気力だ-意欲的だ,17,28,0,448,448,556,2,1.509,OkamotoMasahiro,001,2018_Dec_05_1118,verb_impression,59.815231418320586,
言う,軽薄だ-重厚だ,11,23,0,449,449,450,0,1.446,OkamotoMasahiro,001,2018_Dec_05_1118,verb_impression,59.815231418320586,
言う,恥知らずだ-恥ずかしがりだ,10,23,0,450,450,449,0,17.629,OkamotoMasahiro,001,2018_Dec_05_1118,verb_impression,59.815231418320586,
落ち込む,短気だ-気長だ,19,51,0,451,451,1018,-1,4.939,OkamotoMasahiro,001,2018_Dec_05_1118,verb_impression,59.815231418320586,
歌う,生意気だ-生意気でない,3,57,0,452,452,1122,0,2.823,OkamotoMasahiro,001,2018_Dec_05_1118,verb_impression,59.815231418320586,
教える,軽薄だ-重厚だ,11,17,0,453,453,330,1,1.777,OkamotoMasahiro,001,2018_Dec_05_1118,verb_impression,59.815231418320586,
決める,親しみにくい-親しみやすい,16,43,0,454,454,855,0,3.955,OkamotoMasahiro,001,2018_Dec_05_1118,verb_impression,59.815231418320586,
評価する,人がわるい-人が良い,2,28,0,455,455,541,0,1.526,OkamotoMasahiro,001,2018_Dec_05_1118,verb_impression,59.815231418320586,
助ける,軽薄だ-重厚だ,11,24,0,456,456,470,0,17.609,OkamotoMasahiro,001,2018_Dec_05_1118,verb_impression,59.815231418320586,
考える,消極的だ-積極的だ,1,32,0,457,457,620,0,2.106,OkamotoMasahiro,001,2018_Dec_05_1118,verb_impression,59.815231418320586,
聞く,憎らしい-可愛らしい,5,6,0,458,458,104,1,3.091,OkamotoMasahiro,001,2018_Dec_05_1118,verb_impression,59.815231418320586,
聞く,人がわるい-人が良い,2,6,0,459,459,101,0,2.713,OkamotoMasahiro,001,2018_Dec_05_1118,verb_impression,59.815231418320586,
話しかける,無気力だ-意欲的だ,17,25,0,460,460,496,2,1.589,OkamotoMasahiro,001,2018_Dec_05_1118,verb_impression,59.815231418320586,
飲む,責任感がない-責任感がある,8,30,0,461,461,587,0,1.557,OkamotoMasahiro,001,2018_Dec_05_1118,verb_impression,59.815231418320586,
入る,憎らしい-可愛らしい,5,35,0,462,462,684,0,1.59,OkamotoMasahiro,001,2018_Dec_05_1118,verb_impression,59.815231418320586,
旅行する,不親切だ-親切だ,20,38,0,463,463,759,0,1.806,OkamotoMasahiro,001,2018_Dec_05_1118,verb_impression,59.815231418320586,
対応する,責任感がない-責任感がある,8,4,0,464,464,67,2,4.637,OkamotoMasahiro,001,2018_Dec_05_1118,verb_impression,59.815231418320586,
貸す,無分別だ-分別がある,15,9,0,465,465,174,0,4.524,OkamotoMasahiro,001,2018_Dec_05_1118,verb_impression,59.815231418320586,
相談する,卑屈だ-堂々とした,13,10,0,466,466,192,0,10.358,OkamotoMasahiro,001,2018_Dec_05_1118,verb_impression,59.815231418320586,
話す,軽率だ-慎重だ,9,18,0,467,467,348,0,1.543,OkamotoMasahiro,001,2018_Dec_05_1118,verb_impression,59.815231418320586,
頼む,心が狭い-心が広い,6,7,0,468,468,125,1,4.872,OkamotoMasahiro,001,2018_Dec_05_1118,verb_impression,59.815231418320586,
旅行する,非社交的だ-社交的だ,7,38,0,469,469,746,1,3.541,OkamotoMasahiro,001,2018_Dec_05_1118,verb_impression,59.815231418320586,
卑下する,不親切だ-親切だ,20,50,0,470,470,999,-1,2.174,OkamotoMasahiro,001,2018_Dec_05_1118,verb_impression,59.815231418320586,
楽しむ,短気だ-気長だ,19,39,0,471,471,778,1,2.123,OkamotoMasahiro,001,2018_Dec_05_1118,verb_impression,59.815231418320586,
行く,生意気だ-生意気でない,3,26,0,472,472,502,0,1.709,OkamotoMasahiro,001,2018_Dec_05_1118,verb_impression,59.815231418320586,
発表する,沈んだ-うきうきした,12,55,0,473,473,1091,0,25.219,OkamotoMasahiro,001,2018_Dec_05_1118,verb_impression,59.815231418320586,
確認する,責任感がない-責任感がある,8,59,0,474,474,1167,2,8.507,OkamotoMasahiro,001,2018_Dec_05_1118,verb_impression,59.815231418320586,
落ち込む,沈んだ-うきうきした,12,51,0,475,475,1011,-3,3.031,OkamotoMasahiro,001,2018_Dec_05_1118,verb_impression,59.815231418320586,
進む,心が狭い-心が広い,6,37,0,476,476,725,0,2.239,OkamotoMasahiro,001,2018_Dec_05_1118,verb_impression,59.815231418320586,
評価する,軽率だ-慎重だ,9,28,0,477,477,548,0,2.293,OkamotoMasahiro,001,2018_Dec_05_1118,verb_impression,59.815231418320586,
参加する,憎らしい-可愛らしい,5,48,0,478,478,944,0,1.658,OkamotoMasahiro,001,2018_Dec_05_1118,verb_impression,59.815231418320586,
助ける,自信がない-自信がある,18,24,0,479,479,477,2,57.916,OkamotoMasahiro,001,2018_Dec_05_1118,verb_impression,59.815231418320586,
沈む,恥知らずだ-恥ずかしがりだ,10,56,0,480,480,1109,1,2.557,OkamotoMasahiro,001,2018_Dec_05_1118,verb_impression,59.815231418320586,
確認する,人がわるい-人が良い,2,59,0,481,481,1161,0,3.424,OkamotoMasahiro,001,2018_Dec_05_1118,verb_impression,59.815231418320586,
言う,無気力だ-意欲的だ,17,23,0,482,482,456,2,2.423,OkamotoMasahiro,001,2018_Dec_05_1118,verb_impression,59.815231418320586,
合う,沈んだ-うきうきした,12,12,0,483,483,231,0,2.271,OkamotoMasahiro,001,2018_Dec_05_1118,verb_impression,59.815231418320586,
交流する,心が狭い-心が広い,6,33,0,484,484,645,3,2.039,OkamotoMasahiro,001,2018_Dec_05_1118,verb_impression,59.815231418320586,
送る,卑屈だ-堂々とした,13,15,0,485,485,292,1,2.808,OkamotoMasahiro,001,2018_Dec_05_1118,verb_impression,59.815231418320586,
評価する,消極的だ-積極的だ,1,28,0,486,486,540,1,2.427,OkamotoMasahiro,001,2018_Dec_05_1118,verb_impression,59.815231418320586,
行動する,感じが悪い-感じが良い,14,31,0,487,487,613,0,2.418,OkamotoMasahiro,001,2018_Dec_05_1118,verb_impression,59.815231418320586,
交流する,沈んだ-うきうきした,12,33,0,488,488,651,2,8.07,OkamotoMasahiro,001,2018_Dec_05_1118,verb_impression,59.815231418320586,
交流する,非社交的だ-社交的だ,7,33,0,489,489,646,3,1.828,OkamotoMasahiro,001,2018_Dec_05_1118,verb_impression,59.815231418320586,
持つ,自信がない-自信がある,18,27,0,490,490,537,1,2.204,OkamotoMasahiro,001,2018_Dec_05_1118,verb_impression,59.815231418320586,
沈む,責任感がない-責任感がある,8,56,0,491,491,1107,0,2.255,OkamotoMasahiro,001,2018_Dec_05_1118,verb_impression,59.815231418320586,
気に入る,人がわるい-人が良い,2,2,0,492,492,21,1,7.803,OkamotoMasahiro,001,2018_Dec_05_1118,verb_impression,59.815231418320586,
連絡する,恥知らずだ-恥ずかしがりだ,10,1,0,493,493,9,0,7.475,OkamotoMasahiro,001,2018_Dec_05_1118,verb_impression,59.815231418320586,
持つ,生意気だ-生意気でない,3,27,0,494,494,522,0,1.441,OkamotoMasahiro,001,2018_Dec_05_1118,verb_impression,59.815231418320586,
活動する,非社交的だ-社交的だ,7,42,0,495,495,826,2,1.988,OkamotoMasahiro,001,2018_Dec_05_1118,verb_impression,59.815231418320586,
教える,短気だ-気長だ,19,17,0,496,496,338,1,1.872,OkamotoMasahiro,001,2018_Dec_05_1118,verb_impression,59.815231418320586,
楽しむ,恥知らずだ-恥ずかしがりだ,10,39,0,497,497,769,0,4.939,OkamotoMasahiro,001,2018_Dec_05_1118,verb_impression,59.815231418320586,
務める,非社交的だ-社交的だ,7,53,0,498,498,1046,0,5.598,OkamotoMasahiro,001,2018_Dec_05_1118,verb_impression,59.815231418320586,
任す,不親切だ-親切だ,20,60,0,499,499,1199,0,4.289,OkamotoMasahiro,001,2018_Dec_05_1118,verb_impression,59.815231418320586,
受け入れる,不親切だ-親切だ,20,13,0,500,500,259,2,1.709,OkamotoMasahiro,001,2018_Dec_05_1118,verb_impression,59.815231418320586,
任す,非社交的だ-社交的だ,7,60,0,501,501,1186,1,10.442,OkamotoMasahiro,001,2018_Dec_05_1118,verb_impression,59.815231418320586,
評価する,近づきがたい-人懐っこい,4,28,0,502,502,543,0,1.656,OkamotoMasahiro,001,2018_Dec_05_1118,verb_impression,59.815231418320586,
務める,沈んだ-うきうきした,12,53,0,503,503,1051,0,1.95,OkamotoMasahiro,001,2018_Dec_05_1118,verb_impression,59.815231418320586,
進む,恥知らずだ-恥ずかしがりだ,10,37,0,504,504,729,-1,8.411,OkamotoMasahiro,001,2018_Dec_05_1118,verb_impression,59.815231418320586,
引き受ける,無分別だ-分別がある,15,11,0,505,505,214,0,2.838,OkamotoMasahiro,001,2018_Dec_05_1118,verb_impression,59.815231418320586,
仕事する,卑屈だ-堂々とした,13,40,0,506,506,792,0,2.009,OkamotoMasahiro,001,2018_Dec_05_1118,verb_impression,59.815231418320586,
取り組む,無分別だ-分別がある,15,36,0,507,507,714,1,2.721,OkamotoMasahiro,001,2018_Dec_05_1118,verb_impression,59.815231418320586,
目立つ,自信がない-自信がある,18,46,0,508,508,917,3,2.323,OkamotoMasahiro,001,2018_Dec_05_1118,verb_impression,59.815231418320586,
話しかける,非社交的だ-社交的だ,7,25,0,509,509,486,3,2.42,OkamotoMasahiro,001,2018_Dec_05_1118,verb_impression,59.815231418320586,
任す,軽率だ-慎重だ,9,60,0,510,510,1188,0,1.911,OkamotoMasahiro,001,2018_Dec_05_1118,verb_impression,59.815231418320586,
歌う,短気だ-気長だ,19,57,0,511,511,1138,0,3.022,OkamotoMasahiro,001,2018_Dec_05_1118,verb_impression,59.815231418320586,
歌う,不親切だ-親切だ,20,57,0,512,512,1139,0,18.632,OkamotoMasahiro,001,2018_Dec_05_1118,verb_impression,59.815231418320586,
助ける,心が狭い-心が広い,6,24,0,513,513,465,3,1.54,OkamotoMasahiro,001,2018_Dec_05_1118,verb_impression,59.815231418320586,
助ける,感じが悪い-感じが良い,14,24,0,514,514,473,3,2.108,OkamotoMasahiro,001,2018_Dec_05_1118,verb_impression,59.815231418320586,
出る,無分別だ-分別がある,15,44,0,515,515,874,0,1.805,OkamotoMasahiro,001,2018_Dec_05_1118,verb_impression,59.815231418320586,
歌う,軽率だ-慎重だ,9,57,0,516,516,1128,0,1.356,OkamotoMasahiro,001,2018_Dec_05_1118,verb_impression,59.815231418320586,
立候補する,消極的だ-積極的だ,1,54,0,517,517,1060,3,3.972,OkamotoMasahiro,001,2018_Dec_05_1118,verb_impression,59.815231418320586,
出る,消極的だ-積極的だ,1,44,0,518,518,860,3,1.596,OkamotoMasahiro,001,2018_Dec_05_1118,verb_impression,59.815231418320586,
受け入れる,短気だ-気長だ,19,13,0,519,519,258,3,2.552,OkamotoMasahiro,001,2018_Dec_05_1118,verb_impression,59.815231418320586,
接する,自信がない-自信がある,18,3,0,520,520,57,1,1.89,OkamotoMasahiro,001,2018_Dec_05_1118,verb_impression,59.815231418320586,
確認する,不親切だ-親切だ,20,59,0,521,521,1179,2,4.025,OkamotoMasahiro,001,2018_Dec_05_1118,verb_impression,59.815231418320586,
取り組む,責任感がない-責任感がある,8,36,0,522,522,707,1,2.821,OkamotoMasahiro,001,2018_Dec_05_1118,verb_impression,59.815231418320586,
計画する,心が狭い-心が広い,6,47,0,523,523,925,0,7.289,OkamotoMasahiro,001,2018_Dec_05_1118,verb_impression,59.815231418320586,
合う,軽薄だ-重厚だ,11,12,0,524,524,230,0,9.458,OkamotoMasahiro,001,2018_Dec_05_1118,verb_impression,59.815231418320586,
心配する,感じが悪い-感じが良い,14,8,0,525,525,153,0,3.269,OkamotoMasahiro,001,2018_Dec_05_1118,verb_impression,59.815231418320586,
合う,消極的だ-積極的だ,1,12,0,526,526,220,0,7.573,OkamotoMasahiro,001,2018_Dec_05_1118,verb_impression,59.815231418320586,
送る,無気力だ-意欲的だ,17,15,0,527,527,296,0,1.873,OkamotoMasahiro,001,2018_Dec_05_1118,verb_impression,59.815231418320586,
受け入れる,非社交的だ-社交的だ,7,13,0,528,528,246,1,3.556,OkamotoMasahiro,001,2018_Dec_05_1118,verb_impression,59.815231418320586,
気に入る,自信がない-自信がある,18,2,0,529,529,37,0,1.804,OkamotoMasahiro,001,2018_Dec_05_1118,verb_impression,59.815231418320586,
買う,生意気だ-生意気でない,3,41,0,530,530,802,0,2.342,OkamotoMasahiro,001,2018_Dec_05_1118,verb_impression,59.815231418320586,
進む,沈んだ-うきうきした,12,37,0,531,531,731,1,4.006,OkamotoMasahiro,001,2018_Dec_05_1118,verb_impression,59.815231418320586,
親しむ,卑屈だ-堂々とした,13,20,0,532,532,392,1,2.524,OkamotoMasahiro,001,2018_Dec_05_1118,verb_impression,59.815231418320586,
行動する,消極的だ-積極的だ,1,31,0,533,533,600,3,9.822,OkamotoMasahiro,001,2018_Dec_05_1118,verb_impression,59.815231418320586,
発表する,近づきがたい-人懐っこい,4,55,0,534,534,1083,0,1.949,OkamotoMasahiro,001,2018_Dec_05_1118,verb_impression,59.815231418320586,
行う,責任感がない-責任感がある,8,34,0,535,535,667,1,3.572,OkamotoMasahiro,001,2018_Dec_05_1118,verb_impression,59.815231418320586,
対応する,軽率だ-慎重だ,9,4,0,536,536,68,0,2.493,OkamotoMasahiro,001,2018_Dec_05_1118,verb_impression,59.815231418320586,
親しむ,無分別だ-分別がある,15,20,0,537,537,394,0,13.204,OkamotoMasahiro,001,2018_Dec_05_1118,verb_impression,59.815231418320586,
接する,生意気だ-生意気でない,3,3,0,538,538,42,1,3.79,OkamotoMasahiro,001,2018_Dec_05_1118,verb_impression,59.815231418320586,
言う,憎らしい-可愛らしい,5,23,0,539,539,444,0,9.742,OkamotoMasahiro,001,2018_Dec_05_1118,verb_impression,59.815231418320586,
活動する,消極的だ-積極的だ,1,42,0,540,540,820,3,4.007,OkamotoMasahiro,001,2018_Dec_05_1118,verb_impression,59.815231418320586,
見下す,無気力だ-意欲的だ,17,22,0,541,541,436,1,2.204,OkamotoMasahiro,001,2018_Dec_05_1118,verb_impression,59.815231418320586,
沈む,不親切だ-親切だ,20,56,0,542,542,1119,0,3.255,OkamotoMasahiro,001,2018_Dec_05_1118,verb_impression,59.815231418320586,
決める,軽薄だ-重厚だ,11,43,0,543,543,850,0,12.908,OkamotoMasahiro,001,2018_Dec_05_1118,verb_impression,59.815231418320586,
持つ,無分別だ-分別がある,15,27,0,544,544,534,0,6.522,OkamotoMasahiro,001,2018_Dec_05_1118,verb_impression,59.815231418320586,
気に入る,感じが悪い-感じが良い,14,2,0,545,545,33,0,2.535,OkamotoMasahiro,001,2018_Dec_05_1118,verb_impression,59.815231418320586,
引き受ける,軽率だ-慎重だ,9,11,0,546,546,208,-1,3.092,OkamotoMasahiro,001,2018_Dec_05_1118,verb_impression,59.815231418320586,
対応する,軽薄だ-重厚だ,11,4,0,547,547,70,0,2.461,OkamotoMasahiro,001,2018_Dec_05_1118,verb_impression,59.815231418320586,
発言する,自信がない-自信がある,18,29,0,548,548,577,1,27.355,OkamotoMasahiro,001,2018_Dec_05_1118,verb_impression,59.815231418320586,
発表する,無気力だ-意欲的だ,17,55,0,549,549,1096,1,12.886,OkamotoMasahiro,001,2018_Dec_05_1118,verb_impression,59.815231418320586,
困る,責任感がない-責任感がある,8,21,0,550,550,407,1,3.003,OkamotoMasahiro,001,2018_Dec_05_1118,verb_impression,59.815231418320586,
取り組む,心が狭い-心が広い,6,36,0,551,551,705,0,1.817,OkamotoMasahiro,001,2018_Dec_05_1118,verb_impression,59.815231418320586,
仕事する,憎らしい-可愛らしい,5,40,0,552,552,784,0,10.923,OkamotoMasahiro,001,2018_Dec_05_1118,verb_impression,59.815231418320586,
楽しむ,消極的だ-積極的だ,1,39,0,553,553,760,1,3.309,OkamotoMasahiro,001,2018_Dec_05_1118,verb_impression,59.815231418320586,
楽しむ,人がわるい-人が良い,2,39,0,554,554,761,1,1.927,OkamotoMasahiro,001,2018_Dec_05_1118,verb_impression,59.815231418320586,
送る,心が狭い-心が広い,6,15,0,555,555,285,1,2.456,OkamotoMasahiro,001,2018_Dec_05_1118,verb_impression,59.815231418320586,
取り組む,不親切だ-親切だ,20,36,0,556,556,719,0,4.321,OkamotoMasahiro,001,2018_Dec_05_1118,verb_impression,59.815231418320586,
頼む,消極的だ-積極的だ,1,7,0,557,557,120,1,2.589,OkamotoMasahiro,001,2018_Dec_05_1118,verb_impression,59.815231418320586,
楽しむ,無気力だ-意欲的だ,17,39,0,558,558,776,2,1.872,OkamotoMasahiro,001,2018_Dec_05_1118,verb_impression,59.815231418320586,
相談する,軽薄だ-重厚だ,11,10,0,559,559,190,0,1.831,OkamotoMasahiro,001,2018_Dec_05_1118,verb_impression,59.815231418320586,
確認する,軽薄だ-重厚だ,11,59,0,560,560,1170,3,3.429,OkamotoMasahiro,001,2018_Dec_05_1118,verb_impression,59.815231418320586,
務める,生意気だ-生意気でない,3,53,0,561,561,1042,1,23.29,OkamotoMasahiro,001,2018_Dec_05_1118,verb_impression,59.815231418320586,
目立つ,消極的だ-積極的だ,1,46,0,562,562,900,2,2.345,OkamotoMasahiro,001,2018_Dec_05_1118,verb_impression,59.815231418320586,
立候補する,心が狭い-心が広い,6,54,0,563,563,1065,1,3.768,OkamotoMasahiro,001,2018_Dec_05_1118,verb_impression,59.815231418320586,
任す,憎らしい-可愛らしい,5,60,0,564,564,1184,0,2.142,OkamotoMasahiro,001,2018_Dec_05_1118,verb_impression,59.815231418320586,
接する,無気力だ-意欲的だ,17,3,0,565,565,56,2,2.308,OkamotoMasahiro,001,2018_Dec_05_1118,verb_impression,59.815231418320586,
取り組む,近づきがたい-人懐っこい,4,36,0,566,566,703,0,3.717,OkamotoMasahiro,001,2018_Dec_05_1118,verb_impression,59.815231418320586,
近寄る,責任感がない-責任感がある,8,45,0,567,567,887,0,2.374,OkamotoMasahiro,001,2018_Dec_05_1118,verb_impression,59.815231418320586,
許す,軽薄だ-重厚だ,11,14,0,568,568,270,0,1.81,OkamotoMasahiro,001,2018_Dec_05_1118,verb_impression,59.815231418320586,
仕事する,自信がない-自信がある,18,40,0,569,569,797,0,8.67,OkamotoMasahiro,001,2018_Dec_05_1118,verb_impression,59.815231418320586,
見下す,無分別だ-分別がある,15,22,0,570,570,434,0,1.856,OkamotoMasahiro,001,2018_Dec_05_1118,verb_impression,59.815231418320586,
落ち込む,非社交的だ-社交的だ,7,51,0,571,571,1006,-1,1.89,OkamotoMasahiro,001,2018_Dec_05_1118,verb_impression,59.815231418320586,
与える,近づきがたい-人懐っこい,4,58,0,572,572,1143,2,11.285,OkamotoMasahiro,001,2018_Dec_05_1118,verb_impression,59.815231418320586,
発言する,近づきがたい-人懐っこい,4,29,0,573,573,563,1,2.381,OkamotoMasahiro,001,2018_Dec_05_1118,verb_impression,59.815231418320586,
落ち込む,近づきがたい-人懐っこい,4,51,0,574,574,1003,-1,17.992,OkamotoMasahiro,001,2018_Dec_05_1118,verb_impression,59.815231418320586,
計画する,不親切だ-親切だ,20,47,0,575,575,939,0,1.575,OkamotoMasahiro,001,2018_Dec_05_1118,verb_impression,59.815231418320586,
旅行する,沈んだ-うきうきした,12,38,0,576,576,751,2,23.387,OkamotoMasahiro,001,2018_Dec_05_1118,verb_impression,59.815231418320586,
頼む,卑屈だ-堂々とした,13,7,0,577,577,132,2,2.049,OkamotoMasahiro,001,2018_Dec_05_1118,verb_impression,59.815231418320586,
話しかける,恥知らずだ-恥ずかしがりだ,10,25,0,578,578,489,-1,3.008,OkamotoMasahiro,001,2018_Dec_05_1118,verb_impression,59.815231418320586,
仕事する,生意気だ-生意気でない,3,40,0,579,579,782,0,7.338,OkamotoMasahiro,001,2018_Dec_05_1118,verb_impression,59.815231418320586,
目立つ,軽薄だ-重厚だ,11,46,0,580,580,910,-1,5.275,OkamotoMasahiro,001,2018_Dec_05_1118,verb_impression,59.815231418320586,
困る,近づきがたい-人懐っこい,4,21,0,581,581,403,0,8.054,OkamotoMasahiro,001,2018_Dec_05_1118,verb_impression,59.815231418320586,
活動する,卑屈だ-堂々とした,13,42,0,582,582,832,2,2.407,OkamotoMasahiro,001,2018_Dec_05_1118,verb_impression,59.815231418320586,
感じる,親しみにくい-親しみやすい,16,16,0,583,583,315,0,1.555,OkamotoMasahiro,001,2018_Dec_05_1118,verb_impression,59.815231418320586,
連絡する,生意気だ-生意気でない,3,1,0,584,584,2,1,13.439,OkamotoMasahiro,001,2018_Dec_05_1118,verb_impression,59.815231418320586,
入る,責任感がない-責任感がある,8,35,0,585,585,687,0,1.572,OkamotoMasahiro,001,2018_Dec_05_1118,verb_impression,59.815231418320586,
買う,軽薄だ-重厚だ,11,41,0,586,586,810,0,1.546,OkamotoMasahiro,001,2018_Dec_05_1118,verb_impression,59.815231418320586,
進む,憎らしい-可愛らしい,5,37,0,587,587,724,0,3.52,OkamotoMasahiro,001,2018_Dec_05_1118,verb_impression,59.815231418320586,
歌う,恥知らずだ-恥ずかしがりだ,10,57,0,588,588,1129,-2,2.024,OkamotoMasahiro,001,2018_Dec_05_1118,verb_impression,59.815231418320586,
連絡する,近づきがたい-人懐っこい,4,1,0,589,589,3,2,18.456,OkamotoMasahiro,001,2018_Dec_05_1118,verb_impression,59.815231418320586,
持つ,短気だ-気長だ,19,27,0,590,590,538,0,1.693,OkamotoMasahiro,001,2018_Dec_05_1118,verb_impression,59.815231418320586,
怒る,無分別だ-分別がある,15,19,0,591,591,374,-1,3.723,OkamotoMasahiro,001,2018_Dec_05_1118,verb_impression,59.815231418320586,
落ち込む,無分別だ-分別がある,15,51,0,592,592,1014,0,3.199,OkamotoMasahiro,001,2018_Dec_05_1118,verb_impression,59.815231418320586,
発言する,短気だ-気長だ,19,29,0,593,593,578,0,2.076,OkamotoMasahiro,001,2018_Dec_05_1118,verb_impression,59.815231418320586,
持つ,恥知らずだ-恥ずかしがりだ,10,27,0,594,594,529,0,1.472,OkamotoMasahiro,001,2018_Dec_05_1118,verb_impression,59.815231418320586,
入る,非社交的だ-社交的だ,7,35,0,595,595,686,0,2.021,OkamotoMasahiro,001,2018_Dec_05_1118,verb_impression,59.815231418320586,
与える,短気だ-気長だ,19,58,0,596,596,1158,3,1.873,OkamotoMasahiro,001,2018_Dec_05_1118,verb_impression,59.815231418320586,
出る,軽率だ-慎重だ,9,44,0,597,597,868,0,9.541,OkamotoMasahiro,001,2018_Dec_05_1118,verb_impression,59.815231418320586,
頼む,生意気だ-生意気でない,3,7,0,598,598,122,1,2.339,OkamotoMasahiro,001,2018_Dec_05_1118,verb_impression,59.815231418320586,
考える,沈んだ-うきうきした,12,32,0,599,599,631,-1,3.639,OkamotoMasahiro,001,2018_Dec_05_1118,verb_impression,59.815231418320586,
任す,感じが悪い-感じが良い,14,60,0,600,600,1193,1,3.551,OkamotoMasahiro,001,2018_Dec_05_1118,verb_impression,59.815231418320586,
旅行する,軽薄だ-重厚だ,11,38,0,601,601,750,0,10.06,OkamotoMasahiro,001,2018_Dec_05_1118,verb_impression,59.815231418320586,
許す,感じが悪い-感じが良い,14,14,0,602,602,273,3,1.764,OkamotoMasahiro,001,2018_Dec_05_1118,verb_impression,59.815231418320586,
立候補する,感じが悪い-感じが良い,14,54,0,603,603,1073,1,16.281,OkamotoMasahiro,001,2018_Dec_05_1118,verb_impression,59.815231418320586,
合う,無分別だ-分別がある,15,12,0,604,604,234,0,1.539,OkamotoMasahiro,001,2018_Dec_05_1118,verb_impression,59.815231418320586,
相談する,自信がない-自信がある,18,10,0,605,605,197,-1,4.104,OkamotoMasahiro,001,2018_Dec_05_1118,verb_impression,59.815231418320586,
受け入れる,沈んだ-うきうきした,12,13,0,606,606,251,0,6.237,OkamotoMasahiro,001,2018_Dec_05_1118,verb_impression,59.815231418320586,
怒る,親しみにくい-親しみやすい,16,19,0,607,607,375,-2,2.052,OkamotoMasahiro,001,2018_Dec_05_1118,verb_impression,59.815231418320586,
仕事する,責任感がない-責任感がある,8,40,0,608,608,787,1,2.536,OkamotoMasahiro,001,2018_Dec_05_1118,verb_impression,59.815231418320586,
歌う,消極的だ-積極的だ,1,57,0,609,609,1120,2,9.567,OkamotoMasahiro,001,2018_Dec_05_1118,verb_impression,59.815231418320586,
許す,憎らしい-可愛らしい,5,14,0,610,610,264,0,2.31,OkamotoMasahiro,001,2018_Dec_05_1118,verb_impression,59.815231418320586,
親しむ,責任感がない-責任感がある,8,20,0,611,611,387,0,1.738,OkamotoMasahiro,001,2018_Dec_05_1118,verb_impression,59.815231418320586,
行く,短気だ-気長だ,19,26,0,612,612,518,0,1.475,OkamotoMasahiro,001,2018_Dec_05_1118,verb_impression,59.815231418320586,
受け入れる,卑屈だ-堂々とした,13,13,0,613,613,252,2,2.307,OkamotoMasahiro,001,2018_Dec_05_1118,verb_impression,59.815231418320586,
貸す,親しみにくい-親しみやすい,16,9,0,614,614,175,1,1.888,OkamotoMasahiro,001,2018_Dec_05_1118,verb_impression,59.815231418320586,
貸す,短気だ-気長だ,19,9,0,615,615,178,2,1.696,OkamotoMasahiro,001,2018_Dec_05_1118,verb_impression,59.815231418320586,
教える,非社交的だ-社交的だ,7,17,0,616,616,326,2,1.622,OkamotoMasahiro,001,2018_Dec_05_1118,verb_impression,59.815231418320586,
困る,沈んだ-うきうきした,12,21,0,617,617,411,-3,2.007,OkamotoMasahiro,001,2018_Dec_05_1118,verb_impression,59.815231418320586,
沈む,軽率だ-慎重だ,9,56,0,618,618,1108,1,3.125,OkamotoMasahiro,001,2018_Dec_05_1118,verb_impression,59.815231418320586,
発言する,卑屈だ-堂々とした,13,29,0,619,619,572,0,4.693,OkamotoMasahiro,001,2018_Dec_05_1118,verb_impression,59.815231418320586,
行く,感じが悪い-感じが良い,14,26,0,620,620,513,0,2.138,OkamotoMasahiro,001,2018_Dec_05_1118,verb_impression,59.815231418320586,
教える,近づきがたい-人懐っこい,4,17,0,621,621,323,1,2.438,OkamotoMasahiro,001,2018_Dec_05_1118,verb_impression,59.815231418320586,
助ける,憎らしい-可愛らしい,5,24,0,622,622,464,1,2.739,OkamotoMasahiro,001,2018_Dec_05_1118,verb_impression,59.815231418320586,
任す,親しみにくい-親しみやすい,16,60,0,623,623,1195,2,2.323,OkamotoMasahiro,001,2018_Dec_05_1118,verb_impression,59.815231418320586,
頼む,無分別だ-分別がある,15,7,0,624,624,134,1,3.423,OkamotoMasahiro,001,2018_Dec_05_1118,verb_impression,59.815231418320586,
貸す,非社交的だ-社交的だ,7,9,0,625,625,166,2,1.825,OkamotoMasahiro,001,2018_Dec_05_1118,verb_impression,59.815231418320586,
聞く,心が狭い-心が広い,6,6,0,626,626,105,3,2.587,OkamotoMasahiro,001,2018_Dec_05_1118,verb_impression,59.815231418320586,
教える,軽率だ-慎重だ,9,17,0,627,627,328,1,1.543,OkamotoMasahiro,001,2018_Dec_05_1118,verb_impression,59.815231418320586,
楽しむ,沈んだ-うきうきした,12,39,0,628,628,771,3,2.388,OkamotoMasahiro,001,2018_Dec_05_1118,verb_impression,59.815231418320586,
考える,卑屈だ-堂々とした,13,32,0,629,629,632,0,3.076,OkamotoMasahiro,001,2018_Dec_05_1118,verb_impression,59.815231418320586,
進む,無気力だ-意欲的だ,17,37,0,630,630,736,3,1.789,OkamotoMasahiro,001,2018_Dec_05_1118,verb_impression,59.815231418320586,
交流する,不親切だ-親切だ,20,33,0,631,631,659,3,2.189,OkamotoMasahiro,001,2018_Dec_05_1118,verb_impression,59.815231418320586,
送る,無分別だ-分別がある,15,15,0,632,632,294,0,1.907,OkamotoMasahiro,001,2018_Dec_05_1118,verb_impression,59.815231418320586,
相談する,近づきがたい-人懐っこい,4,10,0,633,633,183,1,2.986,OkamotoMasahiro,001,2018_Dec_05_1118,verb_impression,59.815231418320586,
助ける,無分別だ-分別がある,15,24,0,634,634,474,2,3.058,OkamotoMasahiro,001,2018_Dec_05_1118,verb_impression,59.815231418320586,
心配する,沈んだ-うきうきした,12,8,0,635,635,151,-2,2.071,OkamotoMasahiro,001,2018_Dec_05_1118,verb_impression,59.815231418320586,
怒る,短気だ-気長だ,19,19,0,636,636,378,-3,1.94,OkamotoMasahiro,001,2018_Dec_05_1118,verb_impression,59.815231418320586,
買う,非社交的だ-社交的だ,7,41,0,637,637,806,0,1.773,OkamotoMasahiro,001,2018_Dec_05_1118,verb_impression,59.815231418320586,
任す,無分別だ-分別がある,15,60,0,638,638,1194,0,1.563,OkamotoMasahiro,001,2018_Dec_05_1118,verb_impression,59.815231418320586,
決める,軽率だ-慎重だ,9,43,0,639,639,848,0,8.822,OkamotoMasahiro,001,2018_Dec_05_1118,verb_impression,59.815231418320586,
確認する,非社交的だ-社交的だ,7,59,0,640,640,1166,0,1.787,OkamotoMasahiro,001,2018_Dec_05_1118,verb_impression,59.815231418320586,
引き受ける,感じが悪い-感じが良い,14,11,0,641,641,213,2,3.052,OkamotoMasahiro,001,2018_Dec_05_1118,verb_impression,59.815231418320586,
与える,無分別だ-分別がある,15,58,0,642,642,1154,1,2.791,OkamotoMasahiro,001,2018_Dec_05_1118,verb_impression,59.815231418320586,
困る,不親切だ-親切だ,20,21,0,643,643,419,0,2.903,OkamotoMasahiro,001,2018_Dec_05_1118,verb_impression,59.815231418320586,
送る,親しみにくい-親しみやすい,16,15,0,644,644,295,1,2.06,OkamotoMasahiro,001,2018_Dec_05_1118,verb_impression,59.815231418320586,
進む,非社交的だ-社交的だ,7,37,0,645,645,726,3,1.625,OkamotoMasahiro,001,2018_Dec_05_1118,verb_impression,59.815231418320586,
発言する,憎らしい-可愛らしい,5,29,0,646,646,564,0,2.856,OkamotoMasahiro,001,2018_Dec_05_1118,verb_impression,59.815231418320586,
仕事する,無分別だ-分別がある,15,40,0,647,647,794,0,1.656,OkamotoMasahiro,001,2018_Dec_05_1118,verb_impression,59.815231418320586,
怒る,憎らしい-可愛らしい,5,19,0,648,648,364,-1,2.558,OkamotoMasahiro,001,2018_Dec_05_1118,verb_impression,59.815231418320586,
決める,心が狭い-心が広い,6,43,0,649,649,845,0,1.758,OkamotoMasahiro,001,2018_Dec_05_1118,verb_impression,59.815231418320586,
見下す,責任感がない-責任感がある,8,22,0,650,650,427,0,2.058,OkamotoMasahiro,001,2018_Dec_05_1118,verb_impression,59.815231418320586,
考える,短気だ-気長だ,19,32,0,651,651,638,1,11.174,OkamotoMasahiro,001,2018_Dec_05_1118,verb_impression,59.815231418320586,
近づく,消極的だ-積極的だ,1,52,0,652,652,1020,3,3.756,OkamotoMasahiro,001,2018_Dec_05_1118,verb_impression,59.815231418320586,
活動する,親しみにくい-親しみやすい,16,42,0,653,653,835,1,2.104,OkamotoMasahiro,001,2018_Dec_05_1118,verb_impression,59.815231418320586,
任す,消極的だ-積極的だ,1,60,0,654,654,1180,0,1.808,OkamotoMasahiro,001,2018_Dec_05_1118,verb_impression,59.815231418320586,
助ける,人がわるい-人が良い,2,24,0,655,655,461,3,1.864,OkamotoMasahiro,001,2018_Dec_05_1118,verb_impression,59.815231418320586,
沈む,自信がない-自信がある,18,56,0,656,656,1117,-1,1.789,OkamotoMasahiro,001,2018_Dec_05_1118,verb_impression,59.815231418320586,
送る,憎らしい-可愛らしい,5,15,0,657,657,284,0,1.359,OkamotoMasahiro,001,2018_Dec_05_1118,verb_impression,59.815231418320586,
落ち込む,責任感がない-責任感がある,8,51,0,658,658,1007,1,2.586,OkamotoMasahiro,001,2018_Dec_05_1118,verb_impression,59.815231418320586,
引き受ける,不親切だ-親切だ,20,11,0,659,659,219,2,2.706,OkamotoMasahiro,001,2018_Dec_05_1118,verb_impression,59.815231418320586,
心配する,近づきがたい-人懐っこい,4,8,0,660,660,143,0,13.803,OkamotoMasahiro,001,2018_Dec_05_1118,verb_impression,59.815231418320586,
親しむ,無気力だ-意欲的だ,17,20,0,661,661,396,2,1.719,OkamotoMasahiro,001,2018_Dec_05_1118,verb_impression,59.815231418320586,
話す,不親切だ-親切だ,20,18,0,662,662,359,1,3.341,OkamotoMasahiro,001,2018_Dec_05_1118,verb_impression,59.815231418320586,
旅行する,生意気だ-生意気でない,3,38,0,663,663,742,0,1.91,OkamotoMasahiro,001,2018_Dec_05_1118,verb_impression,59.815231418320586,
卑下する,無気力だ-意欲的だ,17,50,0,664,664,996,-1,2.841,OkamotoMasahiro,001,2018_Dec_05_1118,verb_impression,59.815231418320586,
行動する,卑屈だ-堂々とした,13,31,0,665,665,612,1,3.305,OkamotoMasahiro,001,2018_Dec_05_1118,verb_impression,59.815231418320586,
参加する,短気だ-気長だ,19,48,0,666,666,958,0,2.039,OkamotoMasahiro,001,2018_Dec_05_1118,verb_impression,59.815231418320586,
話しかける,親しみにくい-親しみやすい,16,25,0,667,667,495,3,3.27,OkamotoMasahiro,001,2018_Dec_05_1118,verb_impression,59.815231418320586,
話す,卑屈だ-堂々とした,13,18,0,668,668,352,1,2.377,OkamotoMasahiro,001,2018_Dec_05_1118,verb_impression,59.815231418320586,
参加する,心が狭い-心が広い,6,48,0,669,669,945,1,2.057,OkamotoMasahiro,001,2018_Dec_05_1118,verb_impression,59.815231418320586,
言う,軽率だ-慎重だ,9,23,0,670,670,448,0,1.552,OkamotoMasahiro,001,2018_Dec_05_1118,verb_impression,59.815231418320586,
発表する,人がわるい-人が良い,2,55,0,671,671,1081,0,2.02,OkamotoMasahiro,001,2018_Dec_05_1118,verb_impression,59.815231418320586,
親しむ,人がわるい-人が良い,2,20,0,672,672,381,2,2.679,OkamotoMasahiro,001,2018_Dec_05_1118,verb_impression,59.815231418320586,
卑下する,消極的だ-積極的だ,1,50,0,673,673,980,-1,2.189,OkamotoMasahiro,001,2018_Dec_05_1118,verb_impression,59.815231418320586,
確認する,無気力だ-意欲的だ,17,59,0,674,674,1176,2,2.791,OkamotoMasahiro,001,2018_Dec_05_1118,verb_impression,59.815231418320586,
休む,無気力だ-意欲的だ,17,49,0,675,675,976,-1,3.501,OkamotoMasahiro,001,2018_Dec_05_1118,verb_impression,59.815231418320586,
与える,沈んだ-うきうきした,12,58,0,676,676,1151,1,3.489,OkamotoMasahiro,001,2018_Dec_05_1118,verb_impression,59.815231418320586,
立候補する,無分別だ-分別がある,15,54,0,677,677,1074,0,2.805,OkamotoMasahiro,001,2018_Dec_05_1118,verb_impression,59.815231418320586,
考える,無分別だ-分別がある,15,32,0,678,678,634,3,3.295,OkamotoMasahiro,001,2018_Dec_05_1118,verb_impression,59.815231418320586,
対応する,親しみにくい-親しみやすい,16,4,0,679,679,75,3,3.473,OkamotoMasahiro,001,2018_Dec_05_1118,verb_impression,59.815231418320586,
断る,無分別だ-分別がある,15,5,0,680,680,94,1,2.64,OkamotoMasahiro,001,2018_Dec_05_1118,verb_impression,59.815231418320586,
発表する,卑屈だ-堂々とした,13,55,0,681,681,1092,0,1.89,OkamotoMasahiro,001,2018_Dec_05_1118,verb_impression,59.815231418320586,
感じる,心が狭い-心が広い,6,16,0,682,682,305,0,2.672,OkamotoMasahiro,001,2018_Dec_05_1118,verb_impression,59.815231418320586,
行動する,生意気だ-生意気でない,3,31,0,683,683,602,0,7.223,OkamotoMasahiro,001,2018_Dec_05_1118,verb_impression,59.815231418320586,
取り組む,親しみにくい-親しみやすい,16,36,0,684,684,715,0,3.556,OkamotoMasahiro,001,2018_Dec_05_1118,verb_impression,59.815231418320586,
持つ,沈んだ-うきうきした,12,27,0,685,685,531,0,8.854,OkamotoMasahiro,001,2018_Dec_05_1118,verb_impression,59.815231418320586,
休む,軽率だ-慎重だ,9,49,0,686,686,968,0,2.69,OkamotoMasahiro,001,2018_Dec_05_1118,verb_impression,59.815231418320586,
休む,責任感がない-責任感がある,8,49,0,687,687,967,0,7.012,OkamotoMasahiro,001,2018_Dec_05_1118,verb_impression,59.815231418320586,
活動する,短気だ-気長だ,19,42,0,688,688,838,-1,21.489,OkamotoMasahiro,001,2018_Dec_05_1118,verb_impression,59.815231418320586,
行動する,親しみにくい-親しみやすい,16,31,0,689,689,615,1,2.068,OkamotoMasahiro,001,2018_Dec_05_1118,verb_impression,59.815231418320586,
受け入れる,人がわるい-人が良い,2,13,0,690,690,241,3,1.771,OkamotoMasahiro,001,2018_Dec_05_1118,verb_impression,59.815231418320586,
卑下する,短気だ-気長だ,19,50,0,691,691,998,-1,2.971,OkamotoMasahiro,001,2018_Dec_05_1118,verb_impression,59.815231418320586,
感じる,沈んだ-うきうきした,12,16,0,692,692,311,0,1.753,OkamotoMasahiro,001,2018_Dec_05_1118,verb_impression,59.815231418320586,
評価する,軽薄だ-重厚だ,11,28,0,693,693,550,0,4.428,OkamotoMasahiro,001,2018_Dec_05_1118,verb_impression,59.815231418320586,
送る,感じが悪い-感じが良い,14,15,0,694,694,293,1,1.489,OkamotoMasahiro,001,2018_Dec_05_1118,verb_impression,59.815231418320586,
断る,不親切だ-親切だ,20,5,0,695,695,99,-1,1.705,OkamotoMasahiro,001,2018_Dec_05_1118,verb_impression,59.815231418320586,
連絡する,不親切だ-親切だ,20,1,0,696,696,19,0,3.729,OkamotoMasahiro,001,2018_Dec_05_1118,verb_impression,59.815231418320586,
計画する,消極的だ-積極的だ,1,47,0,697,697,920,1,2.625,OkamotoMasahiro,001,2018_Dec_05_1118,verb_impression,59.815231418320586,
教える,生意気だ-生意気でない,3,17,0,698,698,322,0,2.021,OkamotoMasahiro,001,2018_Dec_05_1118,verb_impression,59.815231418320586,
行く,責任感がない-責任感がある,8,26,0,699,699,507,0,2.224,OkamotoMasahiro,001,2018_Dec_05_1118,verb_impression,59.815231418320586,
相談する,非社交的だ-社交的だ,7,10,0,700,700,186,1,2.359,OkamotoMasahiro,001,2018_Dec_05_1118,verb_impression,59.815231418320586,
連絡する,非社交的だ-社交的だ,7,1,0,701,701,6,1,2.249,OkamotoMasahiro,001,2018_Dec_05_1118,verb_impression,59.815231418320586,
見下す,人がわるい-人が良い,2,22,0,702,702,421,-3,2.139,OkamotoMasahiro,001,2018_Dec_05_1118,verb_impression,59.815231418320586,
行う,不親切だ-親切だ,20,34,0,703,703,679,0,3.009,OkamotoMasahiro,001,2018_Dec_05_1118,verb_impression,59.815231418320586,
近づく,憎らしい-可愛らしい,5,52,0,704,704,1024,2,2.307,OkamotoMasahiro,001,2018_Dec_05_1118,verb_impression,59.815231418320586,
出る,不親切だ-親切だ,20,44,0,705,705,879,0,1.84,OkamotoMasahiro,001,2018_Dec_05_1118,verb_impression,59.815231418320586,
立候補する,恥知らずだ-恥ずかしがりだ,10,54,0,706,706,1069,-1,6.609,OkamotoMasahiro,001,2018_Dec_05_1118,verb_impression,59.815231418320586,
見下す,近づきがたい-人懐っこい,4,22,0,707,707,423,-3,2.006,OkamotoMasahiro,001,2018_Dec_05_1118,verb_impression,59.815231418320586,
計画する,軽率だ-慎重だ,9,47,0,708,708,928,3,2.507,OkamotoMasahiro,001,2018_Dec_05_1118,verb_impression,59.815231418320586,
話す,近づきがたい-人懐っこい,4,18,0,709,709,343,2,10.422,OkamotoMasahiro,001,2018_Dec_05_1118,verb_impression,59.815231418320586,
務める,感じが悪い-感じが良い,14,53,0,710,710,1053,1,1.752,OkamotoMasahiro,001,2018_Dec_05_1118,verb_impression,59.815231418320586,
話す,自信がない-自信がある,18,18,0,711,711,357,1,1.823,OkamotoMasahiro,001,2018_Dec_05_1118,verb_impression,59.815231418320586,
与える,軽薄だ-重厚だ,11,58,0,712,712,1150,0,5.41,OkamotoMasahiro,001,2018_Dec_05_1118,verb_impression,59.815231418320586,
決める,不親切だ-親切だ,20,43,0,713,713,859,0,7.891,OkamotoMasahiro,001,2018_Dec_05_1118,verb_impression,59.815231418320586,
飲む,消極的だ-積極的だ,1,30,0,714,714,580,0,2.09,OkamotoMasahiro,001,2018_Dec_05_1118,verb_impression,59.815231418320586,
飲む,恥知らずだ-恥ずかしがりだ,10,30,0,715,715,589,0,1.779,OkamotoMasahiro,001,2018_Dec_05_1118,verb_impression,59.815231418320586,
旅行する,短気だ-気長だ,19,38,0,716,716,758,0,1.76,OkamotoMasahiro,001,2018_Dec_05_1118,verb_impression,59.815231418320586,
話す,憎らしい-可愛らしい,5,18,0,717,717,344,1,14.407,OkamotoMasahiro,001,2018_Dec_05_1118,verb_impression,59.815231418320586,
親しむ,感じが悪い-感じが良い,14,20,0,718,718,393,2,8.5,OkamotoMasahiro,001,2018_Dec_05_1118,verb_impression,59.815231418320586,
評価する,不親切だ-親切だ,20,28,0,719,719,559,0,1.829,OkamotoMasahiro,001,2018_Dec_05_1118,verb_impression,59.815231418320586,
行動する,責任感がない-責任感がある,8,31,0,720,720,607,0,16.826,OkamotoMasahiro,001,2018_Dec_05_1118,verb_impression,59.815231418320586,
許す,親しみにくい-親しみやすい,16,14,0,721,721,275,3,1.973,OkamotoMasahiro,001,2018_Dec_05_1118,verb_impression,59.815231418320586,
進む,自信がない-自信がある,18,37,0,722,722,737,2,2.387,OkamotoMasahiro,001,2018_Dec_05_1118,verb_impression,59.815231418320586,
計画する,無気力だ-意欲的だ,17,47,0,723,723,936,2,2.023,OkamotoMasahiro,001,2018_Dec_05_1118,verb_impression,59.815231418320586,
相談する,不親切だ-親切だ,20,10,0,724,724,199,1,5.674,OkamotoMasahiro,001,2018_Dec_05_1118,verb_impression,59.815231418320586,
旅行する,近づきがたい-人懐っこい,4,38,0,725,725,743,0,6.89,OkamotoMasahiro,001,2018_Dec_05_1118,verb_impression,59.815231418320586,
計画する,自信がない-自信がある,18,47,0,726,726,937,0,4.687,OkamotoMasahiro,001,2018_Dec_05_1118,verb_impression,59.815231418320586,
楽しむ,生意気だ-生意気でない,3,39,0,727,727,762,0,11.138,OkamotoMasahiro,001,2018_Dec_05_1118,verb_impression,59.815231418320586,
聞く,生意気だ-生意気でない,3,6,0,728,728,102,2,8.881,OkamotoMasahiro,001,2018_Dec_05_1118,verb_impression,59.815231418320586,
務める,不親切だ-親切だ,20,53,0,729,729,1059,1,3.306,OkamotoMasahiro,001,2018_Dec_05_1118,verb_impression,59.815231418320586,
沈む,軽薄だ-重厚だ,11,56,0,730,730,1110,1,3.293,OkamotoMasahiro,001,2018_Dec_05_1118,verb_impression,59.815231418320586,
飲む,無気力だ-意欲的だ,17,30,0,731,731,596,0,2.39,OkamotoMasahiro,001,2018_Dec_05_1118,verb_impression,59.815231418320586,
話しかける,軽率だ-慎重だ,9,25,0,732,732,488,-1,14.821,OkamotoMasahiro,001,2018_Dec_05_1118,verb_impression,59.815231418320586,
任す,恥知らずだ-恥ずかしがりだ,10,60,0,733,733,1189,0,10.501,OkamotoMasahiro,001,2018_Dec_05_1118,verb_impression,59.815231418320586,
頼む,非社交的だ-社交的だ,7,7,0,734,734,126,2,8.156,OkamotoMasahiro,001,2018_Dec_05_1118,verb_impression,59.815231418320586,
話す,無分別だ-分別がある,15,18,0,735,735,354,0,1.673,OkamotoMasahiro,001,2018_Dec_05_1118,verb_impression,59.815231418320586,
行動する,憎らしい-可愛らしい,5,31,0,736,736,604,0,1.672,OkamotoMasahiro,001,2018_Dec_05_1118,verb_impression,59.815231418320586,
確認する,沈んだ-うきうきした,12,59,0,737,737,1171,0,5.322,OkamotoMasahiro,001,2018_Dec_05_1118,verb_impression,59.815231418320586,
受け入れる,自信がない-自信がある,18,13,0,738,738,257,3,2.285,OkamotoMasahiro,001,2018_Dec_05_1118,verb_impression,59.815231418320586,
休む,沈んだ-うきうきした,12,49,0,739,739,971,0,2.941,OkamotoMasahiro,001,2018_Dec_05_1118,verb_impression,59.815231418320586,
困る,生意気だ-生意気でない,3,21,0,740,740,402,1,4.012,OkamotoMasahiro,001,2018_Dec_05_1118,verb_impression,59.815231418320586,
歌う,責任感がない-責任感がある,8,57,0,741,741,1127,0,2.448,OkamotoMasahiro,001,2018_Dec_05_1118,verb_impression,59.815231418320586,
接する,軽薄だ-重厚だ,11,3,0,742,742,50,-1,12.977,OkamotoMasahiro,001,2018_Dec_05_1118,verb_impression,59.815231418320586,
断る,感じが悪い-感じが良い,14,5,0,743,743,93,-2,11.423,OkamotoMasahiro,001,2018_Dec_05_1118,verb_impression,59.815231418320586,
決める,近づきがたい-人懐っこい,4,43,0,744,744,843,0,2.187,OkamotoMasahiro,001,2018_Dec_05_1118,verb_impression,59.815231418320586,
話しかける,沈んだ-うきうきした,12,25,0,745,745,491,2,5.151,OkamotoMasahiro,001,2018_Dec_05_1118,verb_impression,59.815231418320586,
近寄る,自信がない-自信がある,18,45,0,746,746,897,2,8.771,OkamotoMasahiro,001,2018_Dec_05_1118,verb_impression,59.815231418320586,
計画する,近づきがたい-人懐っこい,4,47,0,747,747,923,0,4.224,OkamotoMasahiro,001,2018_Dec_05_1118,verb_impression,59.815231418320586,
持つ,非社交的だ-社交的だ,7,27,0,748,748,526,0,1.508,OkamotoMasahiro,001,2018_Dec_05_1118,verb_impression,59.815231418320586,
行う,消極的だ-積極的だ,1,34,0,749,749,660,3,3.023,OkamotoMasahiro,001,2018_Dec_05_1118,verb_impression,59.815231418320586,
相談する,感じが悪い-感じが良い,14,10,0,750,750,193,1,2.905,OkamotoMasahiro,001,2018_Dec_05_1118,verb_impression,59.815231418320586,
発表する,無分別だ-分別がある,15,55,0,751,751,1094,0,1.658,OkamotoMasahiro,001,2018_Dec_05_1118,verb_impression,59.815231418320586,
対応する,心が狭い-心が広い,6,4,0,752,752,65,2,2.49,OkamotoMasahiro,001,2018_Dec_05_1118,verb_impression,59.815231418320586,
与える,軽率だ-慎重だ,9,58,0,753,753,1148,0,4.374,OkamotoMasahiro,001,2018_Dec_05_1118,verb_impression,59.815231418320586,
送る,非社交的だ-社交的だ,7,15,0,754,754,286,1,3.407,OkamotoMasahiro,001,2018_Dec_05_1118,verb_impression,59.815231418320586,
教える,自信がない-自信がある,18,17,0,755,755,337,2,13.805,OkamotoMasahiro,001,2018_Dec_05_1118,verb_impression,59.815231418320586,
持つ,近づきがたい-人懐っこい,4,27,0,756,756,523,0,2.172,OkamotoMasahiro,001,2018_Dec_05_1118,verb_impression,59.815231418320586,
旅行する,感じが悪い-感じが良い,14,38,0,757,757,753,0,2.955,OkamotoMasahiro,001,2018_Dec_05_1118,verb_impression,59.815231418320586,
進む,軽薄だ-重厚だ,11,37,0,758,758,730,-1,2.22,OkamotoMasahiro,001,2018_Dec_05_1118,verb_impression,59.815231418320586,
引き受ける,軽薄だ-重厚だ,11,11,0,759,759,210,0,2.913,OkamotoMasahiro,001,2018_Dec_05_1118,verb_impression,59.815231418320586,
受け入れる,感じが悪い-感じが良い,14,13,0,760,760,253,3,5.921,OkamotoMasahiro,001,2018_Dec_05_1118,verb_impression,59.815231418320586,
近寄る,心が狭い-心が広い,6,45,0,761,761,885,3,2.438,OkamotoMasahiro,001,2018_Dec_05_1118,verb_impression,59.815231418320586,
接する,無分別だ-分別がある,15,3,0,762,762,54,0,3.323,OkamotoMasahiro,001,2018_Dec_05_1118,verb_impression,59.815231418320586,
許す,無分別だ-分別がある,15,14,0,763,763,274,2,3.548,OkamotoMasahiro,001,2018_Dec_05_1118,verb_impression,59.815231418320586,
連絡する,親しみにくい-親しみやすい,16,1,0,764,764,15,1,6.404,OkamotoMasahiro,001,2018_Dec_05_1118,verb_impression,59.815231418320586,
活動する,生意気だ-生意気でない,3,42,0,765,765,822,0,2.062,OkamotoMasahiro,001,2018_Dec_05_1118,verb_impression,59.815231418320586,
計画する,親しみにくい-親しみやすい,16,47,0,766,766,935,0,10.153,OkamotoMasahiro,001,2018_Dec_05_1118,verb_impression,59.815231418320586,
話す,短気だ-気長だ,19,18,0,767,767,358,0,4.791,OkamotoMasahiro,001,2018_Dec_05_1118,verb_impression,59.815231418320586,
務める,軽率だ-慎重だ,9,53,0,768,768,1048,1,2.309,OkamotoMasahiro,001,2018_Dec_05_1118,verb_impression,59.815231418320586,
話す,恥知らずだ-恥ずかしがりだ,10,18,0,769,769,349,-1,2.008,OkamotoMasahiro,001,2018_Dec_05_1118,verb_impression,59.815231418320586,
近づく,心が狭い-心が広い,6,52,0,770,770,1025,2,2.206,OkamotoMasahiro,001,2018_Dec_05_1118,verb_impression,59.815231418320586,
連絡する,感じが悪い-感じが良い,14,1,0,771,771,13,1,2.054,OkamotoMasahiro,001,2018_Dec_05_1118,verb_impression,59.815231418320586,
感じる,責任感がない-責任感がある,8,16,0,772,772,307,0,1.573,OkamotoMasahiro,001,2018_Dec_05_1118,verb_impression,59.815231418320586,
発言する,消極的だ-積極的だ,1,29,0,773,773,560,2,2.294,OkamotoMasahiro,001,2018_Dec_05_1118,verb_impression,59.815231418320586,
困る,心が狭い-心が広い,6,21,0,774,774,405,0,2.303,OkamotoMasahiro,001,2018_Dec_05_1118,verb_impression,59.815231418320586,
貸す,感じが悪い-感じが良い,14,9,0,775,775,173,2,2.454,OkamotoMasahiro,001,2018_Dec_05_1118,verb_impression,59.815231418320586,
受け入れる,心が狭い-心が広い,6,13,0,776,776,245,3,1.571,OkamotoMasahiro,001,2018_Dec_05_1118,verb_impression,59.815231418320586,
行動する,不親切だ-親切だ,20,31,0,777,777,619,0,1.588,OkamotoMasahiro,001,2018_Dec_05_1118,verb_impression,59.815231418320586,
困る,軽率だ-慎重だ,9,21,0,778,778,408,0,4.522,OkamotoMasahiro,001,2018_Dec_05_1118,verb_impression,59.815231418320586,
目立つ,人がわるい-人が良い,2,46,0,779,779,901,0,1.971,OkamotoMasahiro,001,2018_Dec_05_1118,verb_impression,59.815231418320586,
感じる,恥知らずだ-恥ずかしがりだ,10,16,0,780,780,309,0,1.422,OkamotoMasahiro,001,2018_Dec_05_1118,verb_impression,59.815231418320586,
引き受ける,無気力だ-意欲的だ,17,11,0,781,781,216,1,3.057,OkamotoMasahiro,001,2018_Dec_05_1118,verb_impression,59.815231418320586,
合う,親しみにくい-親しみやすい,16,12,0,782,782,235,2,2.185,OkamotoMasahiro,001,2018_Dec_05_1118,verb_impression,59.815231418320586,
旅行する,無気力だ-意欲的だ,17,38,0,783,783,756,2,1.823,OkamotoMasahiro,001,2018_Dec_05_1118,verb_impression,59.815231418320586,
沈む,生意気だ-生意気でない,3,56,0,784,784,1102,0,2.107,OkamotoMasahiro,001,2018_Dec_05_1118,verb_impression,59.815231418320586,
心配する,自信がない-自信がある,18,8,0,785,785,157,-1,2.202,OkamotoMasahiro,001,2018_Dec_05_1118,verb_impression,59.815231418320586,
参加する,親しみにくい-親しみやすい,16,48,0,786,786,955,1,2.37,OkamotoMasahiro,001,2018_Dec_05_1118,verb_impression,59.815231418320586,
感じる,短気だ-気長だ,19,16,0,787,787,318,0,2.022,OkamotoMasahiro,001,2018_Dec_05_1118,verb_impression,59.815231418320586,
受け入れる,無分別だ-分別がある,15,13,0,788,788,254,0,2.625,OkamotoMasahiro,001,2018_Dec_05_1118,verb_impression,59.815231418320586,
貸す,不親切だ-親切だ,20,9,0,789,789,179,3,5.325,OkamotoMasahiro,001,2018_Dec_05_1118,verb_impression,59.815231418320586,
教える,無分別だ-分別がある,15,17,0,790,790,334,2,5.439,OkamotoMasahiro,001,2018_Dec_05_1118,verb_impression,59.815231418320586,
気に入る,軽薄だ-重厚だ,11,2,0,791,791,30,0,4.592,OkamotoMasahiro,001,2018_Dec_05_1118,verb_impression,59.815231418320586,
落ち込む,生意気だ-生意気でない,3,51,0,792,792,1002,0,14.72,OkamotoMasahiro,001,2018_Dec_05_1118,verb_impression,59.815231418320586,
確認する,心が狭い-心が広い,6,59,0,793,793,1165,0,2.376,OkamotoMasahiro,001,2018_Dec_05_1118,verb_impression,59.815231418320586,
許す,消極的だ-積極的だ,1,14,0,794,794,260,1,3.291,OkamotoMasahiro,001,2018_Dec_05_1118,verb_impression,59.815231418320586,
交流する,卑屈だ-堂々とした,13,33,0,795,795,652,1,2.676,OkamotoMasahiro,001,2018_Dec_05_1118,verb_impression,59.815231418320586,
行動する,無気力だ-意欲的だ,17,31,0,796,796,616,3,1.778,OkamotoMasahiro,001,2018_Dec_05_1118,verb_impression,59.815231418320586,
教える,消極的だ-積極的だ,1,17,0,797,797,320,1,1.726,OkamotoMasahiro,001,2018_Dec_05_1118,verb_impression,59.815231418320586,
話しかける,不親切だ-親切だ,20,25,0,798,798,499,0,2.307,OkamotoMasahiro,001,2018_Dec_05_1118,verb_impression,59.815231418320586,
歌う,感じが悪い-感じが良い,14,57,0,799,799,1133,0,9.438,OkamotoMasahiro,001,2018_Dec_05_1118,verb_impression,59.815231418320586,
気に入る,恥知らずだ-恥ずかしがりだ,10,2,0,800,800,29,0,7.474,OkamotoMasahiro,001,2018_Dec_05_1118,verb_impression,59.815231418320586,
評価する,短気だ-気長だ,19,28,0,801,801,558,0,1.845,OkamotoMasahiro,001,2018_Dec_05_1118,verb_impression,59.815231418320586,
行く,非社交的だ-社交的だ,7,26,0,802,802,506,1,1.8,OkamotoMasahiro,001,2018_Dec_05_1118,verb_impression,59.815231418320586,
確認する,感じが悪い-感じが良い,14,59,0,803,803,1173,0,1.838,OkamotoMasahiro,001,2018_Dec_05_1118,verb_impression,59.815231418320586,
買う,感じが悪い-感じが良い,14,41,0,804,804,813,0,1.394,OkamotoMasahiro,001,2018_Dec_05_1118,verb_impression,59.815231418320586,
話しかける,無分別だ-分別がある,15,25,0,805,805,494,0,1.765,OkamotoMasahiro,001,2018_Dec_05_1118,verb_impression,59.815231418320586,
見下す,軽率だ-慎重だ,9,22,0,806,806,428,-1,9.42,OkamotoMasahiro,001,2018_Dec_05_1118,verb_impression,59.815231418320586,
出る,心が狭い-心が広い,6,44,0,807,807,865,0,4.867,OkamotoMasahiro,001,2018_Dec_05_1118,verb_impression,59.815231418320586,
発言する,非社交的だ-社交的だ,7,29,0,808,808,566,2,3.635,OkamotoMasahiro,001,2018_Dec_05_1118,verb_impression,59.815231418320586,
許す,短気だ-気長だ,19,14,0,809,809,278,3,1.906,OkamotoMasahiro,001,2018_Dec_05_1118,verb_impression,59.815231418320586,
連絡する,無分別だ-分別がある,15,1,0,810,810,14,0,1.642,OkamotoMasahiro,001,2018_Dec_05_1118,verb_impression,59.815231418320586,
与える,親しみにくい-親しみやすい,16,58,0,811,811,1155,2,4.457,OkamotoMasahiro,001,2018_Dec_05_1118,verb_impression,59.815231418320586,
許す,卑屈だ-堂々とした,13,14,0,812,812,272,1,9.406,OkamotoMasahiro,001,2018_Dec_05_1118,verb_impression,59.815231418320586,
決める,卑屈だ-堂々とした,13,43,0,813,813,852,1,3.576,OkamotoMasahiro,001,2018_Dec_05_1118,verb_impression,59.815231418320586,
心配する,恥知らずだ-恥ずかしがりだ,10,8,0,814,814,149,0,2.641,OkamotoMasahiro,001,2018_Dec_05_1118,verb_impression,59.815231418320586,
許す,軽率だ-慎重だ,9,14,0,815,815,268,0,3.993,OkamotoMasahiro,001,2018_Dec_05_1118,verb_impression,59.815231418320586,
心配する,生意気だ-生意気でない,3,8,0,816,816,142,0,12.327,OkamotoMasahiro,001,2018_Dec_05_1118,verb_impression,59.815231418320586,
連絡する,短気だ-気長だ,19,1,0,817,817,18,0,4.171,OkamotoMasahiro,001,2018_Dec_05_1118,verb_impression,59.815231418320586,
活動する,沈んだ-うきうきした,12,42,0,818,818,831,2,3.871,OkamotoMasahiro,001,2018_Dec_05_1118,verb_impression,59.815231418320586,
進む,生意気だ-生意気でない,3,37,0,819,819,722,0,5.325,OkamotoMasahiro,001,2018_Dec_05_1118,verb_impression,59.815231418320586,
任す,卑屈だ-堂々とした,13,60,0,820,820,1192,2,2.474,OkamotoMasahiro,001,2018_Dec_05_1118,verb_impression,59.815231418320586,
与える,不親切だ-親切だ,20,58,0,821,821,1159,3,2.007,OkamotoMasahiro,001,2018_Dec_05_1118,verb_impression,59.815231418320586,
話しかける,卑屈だ-堂々とした,13,25,0,822,822,492,2,2.225,OkamotoMasahiro,001,2018_Dec_05_1118,verb_impression,59.815231418320586,
対応する,自信がない-自信がある,18,4,0,823,823,77,2,2.392,OkamotoMasahiro,001,2018_Dec_05_1118,verb_impression,59.815231418320586,
発言する,責任感がない-責任感がある,8,29,0,824,824,567,0,2.338,OkamotoMasahiro,001,2018_Dec_05_1118,verb_impression,59.815231418320586,
仕事する,感じが悪い-感じが良い,14,40,0,825,825,793,0,2.303,OkamotoMasahiro,001,2018_Dec_05_1118,verb_impression,59.815231418320586,
進む,感じが悪い-感じが良い,14,37,0,826,826,733,0,2.532,OkamotoMasahiro,001,2018_Dec_05_1118,verb_impression,59.815231418320586,
活動する,軽率だ-慎重だ,9,42,0,827,827,828,0,5.573,OkamotoMasahiro,001,2018_Dec_05_1118,verb_impression,59.815231418320586,
相談する,消極的だ-積極的だ,1,10,0,828,828,180,1,1.942,OkamotoMasahiro,001,2018_Dec_05_1118,verb_impression,59.815231418320586,
引き受ける,卑屈だ-堂々とした,13,11,0,829,829,212,1,3.456,OkamotoMasahiro,001,2018_Dec_05_1118,verb_impression,59.815231418320586,
落ち込む,軽薄だ-重厚だ,11,51,0,830,830,1010,1,2.062,OkamotoMasahiro,001,2018_Dec_05_1118,verb_impression,59.815231418320586,
相談する,責任感がない-責任感がある,8,10,0,831,831,187,1,3.023,OkamotoMasahiro,001,2018_Dec_05_1118,verb_impression,59.815231418320586,
評価する,無分別だ-分別がある,15,28,0,832,832,554,0,2.011,OkamotoMasahiro,001,2018_Dec_05_1118,verb_impression,59.815231418320586,
親しむ,心が狭い-心が広い,6,20,0,833,833,385,1,2.765,OkamotoMasahiro,001,2018_Dec_05_1118,verb_impression,59.815231418320586,
卑下する,感じが悪い-感じが良い,14,50,0,834,834,993,-1,2.088,OkamotoMasahiro,001,2018_Dec_05_1118,verb_impression,59.815231418320586,
怒る,感じが悪い-感じが良い,14,19,0,835,835,373,-3,2.165,OkamotoMasahiro,001,2018_Dec_05_1118,verb_impression,59.815231418320586,
聞く,感じが悪い-感じが良い,14,6,0,836,836,113,2,1.965,OkamotoMasahiro,001,2018_Dec_05_1118,verb_impression,59.815231418320586,
任す,生意気だ-生意気でない,3,60,0,837,837,1182,1,5.359,OkamotoMasahiro,001,2018_Dec_05_1118,verb_impression,59.815231418320586,
感じる,憎らしい-可愛らしい,5,16,0,838,838,304,0,2.82,OkamotoMasahiro,001,2018_Dec_05_1118,verb_impression,59.815231418320586,
怒る,軽率だ-慎重だ,9,19,0,839,839,368,-1,6.109,OkamotoMasahiro,001,2018_Dec_05_1118,verb_impression,59.815231418320586,
発表する,親しみにくい-親しみやすい,16,55,0,840,840,1095,0,2.573,OkamotoMasahiro,001,2018_Dec_05_1118,verb_impression,59.815231418320586,
落ち込む,不親切だ-親切だ,20,51,0,841,841,1019,0,1.823,OkamotoMasahiro,001,2018_Dec_05_1118,verb_impression,59.815231418320586,
休む,感じが悪い-感じが良い,14,49,0,842,842,973,0,1.553,OkamotoMasahiro,001,2018_Dec_05_1118,verb_impression,59.815231418320586,
頼む,憎らしい-可愛らしい,5,7,0,843,843,124,0,5.638,OkamotoMasahiro,001,2018_Dec_05_1118,verb_impression,59.815231418320586,
親しむ,軽薄だ-重厚だ,11,20,0,844,844,390,-1,2.96,OkamotoMasahiro,001,2018_Dec_05_1118,verb_impression,59.815231418320586,
進む,短気だ-気長だ,19,37,0,845,845,738,0,1.508,OkamotoMasahiro,001,2018_Dec_05_1118,verb_impression,59.815231418320586,
断る,消極的だ-積極的だ,1,5,0,846,846,80,-1,2.163,OkamotoMasahiro,001,2018_Dec_05_1118,verb_impression,59.815231418320586,
言う,沈んだ-うきうきした,12,23,0,847,847,451,0,3.122,OkamotoMasahiro,001,2018_Dec_05_1118,verb_impression,59.815231418320586,
立候補する,憎らしい-可愛らしい,5,54,0,848,848,1064,0,1.538,OkamotoMasahiro,001,2018_Dec_05_1118,verb_impression,59.815231418320586,
行く,恥知らずだ-恥ずかしがりだ,10,26,0,849,849,509,0,3.06,OkamotoMasahiro,001,2018_Dec_05_1118,verb_impression,59.815231418320586,
出る,親しみにくい-親しみやすい,16,44,0,850,850,875,1,5.555,OkamotoMasahiro,001,2018_Dec_05_1118,verb_impression,59.815231418320586,
考える,人がわるい-人が良い,2,32,0,851,851,621,0,2.571,OkamotoMasahiro,001,2018_Dec_05_1118,verb_impression,59.815231418320586,
参加する,恥知らずだ-恥ずかしがりだ,10,48,0,852,852,949,-1,2.65,OkamotoMasahiro,001,2018_Dec_05_1118,verb_impression,59.815231418320586,
断る,恥知らずだ-恥ずかしがりだ,10,5,0,853,853,89,0,2.577,OkamotoMasahiro,001,2018_Dec_05_1118,verb_impression,59.815231418320586,
接する,短気だ-気長だ,19,3,0,854,854,58,0,2.588,OkamotoMasahiro,001,2018_Dec_05_1118,verb_impression,59.815231418320586,
卑下する,軽率だ-慎重だ,9,50,0,855,855,988,0,1.708,OkamotoMasahiro,001,2018_Dec_05_1118,verb_impression,59.815231418320586,
接する,不親切だ-親切だ,20,3,0,856,856,59,0,2.576,OkamotoMasahiro,001,2018_Dec_05_1118,verb_impression,59.815231418320586,
行く,軽薄だ-重厚だ,11,26,0,857,857,510,0,2.106,OkamotoMasahiro,001,2018_Dec_05_1118,verb_impression,59.815231418320586,
接する,人がわるい-人が良い,2,3,0,858,858,41,1,17.089,OkamotoMasahiro,001,2018_Dec_05_1118,verb_impression,59.815231418320586,
心配する,消極的だ-積極的だ,1,8,0,859,859,140,-1,17.024,OkamotoMasahiro,001,2018_Dec_05_1118,verb_impression,59.815231418320586,
助ける,生意気だ-生意気でない,3,24,0,860,860,462,1,3.221,OkamotoMasahiro,001,2018_Dec_05_1118,verb_impression,59.815231418320586,
貸す,心が狭い-心が広い,6,9,0,861,861,165,2,1.959,OkamotoMasahiro,001,2018_Dec_05_1118,verb_impression,59.815231418320586,
送る,人がわるい-人が良い,2,15,0,862,862,281,1,2.467,OkamotoMasahiro,001,2018_Dec_05_1118,verb_impression,59.815231418320586,
感じる,不親切だ-親切だ,20,16,0,863,863,319,0,2.27,OkamotoMasahiro,001,2018_Dec_05_1118,verb_impression,59.815231418320586,
交流する,近づきがたい-人懐っこい,4,33,0,864,864,643,3,1.824,OkamotoMasahiro,001,2018_Dec_05_1118,verb_impression,59.815231418320586,
